"","when","condition","trial","foreperiod.msec","problem","latency.msec","latency.ptile","actual.answer","correct","include","note"
"481011","2013-12-23 17:13:18","2013-12-23 17:08  blood sugar 93 piece of tea cookie 1 hr ago black tea noon",31,1500,"5",280,80.7978125,"5",TRUE,FALSE,""
"491011","2013-12-23 17:13:23","2013-12-23 17:08  blood sugar 93 piece of tea cookie 1 hr ago black tea noon",32,1500,"4",312,71.3215625,"4",TRUE,FALSE,""
"2","2013-12-23 13:27:30","2013-12-23 13:26 warmup",1,1500,"2",1402,NA,"1",FALSE,FALSE,"illegal character"
"3","2013-12-23 13:27:51","2013-12-23 13:26 warmup",1,1500,"2",11516,NA,"2",TRUE,FALSE,"too slow"
"4","2013-12-23 13:27:58","2013-12-23 13:26 warmup",1,1500,"2",1301,NA,"1",FALSE,FALSE,"illegal character"
"5","2013-12-23 13:28:07","2013-12-23 13:26 warmup",1,1500,"2",2413,NA,"2",TRUE,FALSE,"correction trial"
"6","2013-12-23 13:30:08","2013-12-23 13:26 warmup",1,1500,"7",1341,0.125,"7",TRUE,FALSE,"warmup"
"7","2013-12-23 13:30:18","2013-12-23 13:26 warmup",2,1500,"6",1422,0.125,"6",TRUE,FALSE,"warmup"
"8","2013-12-23 13:30:24","2013-12-23 13:26 warmup",3,1500,"3",1101,0.125,"3",TRUE,FALSE,"warmup"
"9","2013-12-23 13:30:30","2013-12-23 13:26 warmup",4,1500,"3",1041,0.125,"3",TRUE,FALSE,"warmup"
"10","2013-12-23 13:30:36","2013-12-23 13:26 warmup",5,1500,"7",1341,0.125,"7",TRUE,FALSE,"warmup"
"11","2013-12-23 13:30:42","2013-12-23 13:26 warmup",6,1500,"5",1161,0.125,"5",TRUE,FALSE,"warmup"
"21","2013-12-23 13:34:07","2013-12-23 13:33 warmup",1,1500,"6",1301,0.125,"6",TRUE,FALSE,"warmup"
"31","2013-12-23 13:34:14","2013-12-23 13:33 warmup",2,1500,"2",731,0.125,"2",TRUE,FALSE,"warmup"
"41","2013-12-23 13:34:20","2013-12-23 13:33 warmup",3,1500,"6",1261,0.125,"6",TRUE,FALSE,"warmup"
"51","2013-12-23 13:34:26","2013-12-23 13:33 warmup",4,1500,"3",891,0.125,"3",TRUE,FALSE,"warmup"
"61","2013-12-23 13:34:31","2013-12-23 13:33 warmup",5,1500,"3",901,0.125,"3",TRUE,FALSE,"warmup"
"71","2013-12-23 13:34:37","2013-12-23 13:33 warmup",6,1500,"8",1211,0.125,"8",TRUE,FALSE,"warmup"
"22","2014-01-09 14:41:36","2014-01-09 14:40 warmup",1,1500,"5",991,0.125,"5",TRUE,FALSE,"warmup"
"32","2014-01-09 14:41:48","2014-01-09 14:40 warmup",2,1500,"3",991,NA,"4",FALSE,FALSE,"warmup"
"42","2014-01-09 14:42:03","2014-01-09 14:40 warmup",2,1500,"3",791,NA,"3",TRUE,FALSE,"correction trial"
"52","2014-01-09 14:42:08","2014-01-09 14:40 warmup",2,1500,"7",981,NA,"6",FALSE,FALSE,"warmup"
"62","2014-01-09 14:42:13","2014-01-09 14:40 warmup",2,1500,"7",1251,NA,"7",TRUE,FALSE,"correction trial"
"72","2014-01-09 14:42:19","2014-01-09 14:40 warmup",2,1500,"5",1141,NA,"4",FALSE,FALSE,"warmup"
"81","2014-01-09 14:42:26","2014-01-09 14:40 warmup",2,1500,"5",50,NA,"1",FALSE,FALSE,"illegal character"
"91","2014-01-09 14:42:30","2014-01-09 14:40 warmup",2,1500,"5",871,NA,"5",TRUE,FALSE,"correction trial"
"101","2014-01-09 14:42:35","2014-01-09 14:40 warmup",2,1500,"8",1011,NA,"7",FALSE,FALSE,"warmup"
"111","2014-01-09 14:42:41","2014-01-09 14:40 warmup",2,1500,"8",650,NA,"8",TRUE,FALSE,"correction trial"
"12","2014-01-09 14:42:46","2014-01-09 14:40 warmup",2,1500,"3",711,0.125,"3",TRUE,FALSE,"warmup"
"13","2014-01-09 14:42:51","2014-01-09 14:40 warmup",3,1500,"2",771,0.125,"2",TRUE,FALSE,"warmup"
"14","2014-01-09 14:42:56","2014-01-09 14:40 warmup",4,1500,"7",1081,0.125,"7",TRUE,FALSE,"warmup"
"15","2014-01-09 14:43:03","2014-01-09 14:40 warmup",5,1500,"2",947,0.125,"2",TRUE,FALSE,"warmup"
"16","2014-01-09 14:43:08","2014-01-09 14:40 warmup",6,1500,"4",870,0.125,"4",TRUE,FALSE,"warmup"
"23","2014-01-09 14:49:36","2014-01-09 14:49 warmup",1,1500,"4",6899,NA,"4",TRUE,FALSE,"too slow"
"33","2014-01-09 14:49:42","2014-01-09 14:49 warmup",1,1500,"7",1101,NA,"6",FALSE,FALSE,"warmup"
"43","2014-01-09 14:49:46","2014-01-09 14:49 warmup",1,1500,"7",600,NA,"7",TRUE,FALSE,"correction trial"
"53","2014-01-09 14:49:51","2014-01-09 14:49 warmup",1,1500,"6",961,NA,"5",FALSE,FALSE,"warmup"
"63","2014-01-09 14:49:55","2014-01-09 14:49 warmup",1,1500,"6",400,NA,"6",TRUE,FALSE,"correction trial"
"73","2014-01-09 14:50:01","2014-01-09 14:49 warmup",1,1500,"7",771,0.125,"7",TRUE,FALSE,"warmup"
"82","2014-01-09 14:50:05","2014-01-09 14:49 warmup",2,1500,"2",680,0.125,"2",TRUE,FALSE,"warmup"
"92","2014-01-09 14:50:12","2014-01-09 14:49 warmup",3,1500,"7",1011,NA,"6",FALSE,FALSE,"warmup"
"102","2014-01-09 14:50:17","2014-01-09 14:49 warmup",3,1500,"7",400,NA,"7",TRUE,FALSE,"correction trial"
"112","2014-01-09 14:50:23","2014-01-09 14:49 warmup",3,1500,"5",1131,0.125,"5",TRUE,FALSE,"warmup"
"121","2014-01-09 14:50:27","2014-01-09 14:49 warmup",4,1500,"7",690,0.125,"7",TRUE,FALSE,"warmup"
"131","2014-01-09 14:50:33","2014-01-09 14:49 warmup",5,1500,"5",731,0.125,"5",TRUE,FALSE,"warmup"
"141","2014-01-09 14:50:38","2014-01-09 14:49 warmup",6,1500,"7",731,0.125,"7",TRUE,FALSE,"warmup"
"210","2014-01-09 14:52:15","2014-01-09 14:51  First Test",1,1500,"2",620,39.5834839306626,"2",TRUE,TRUE,""
"310","2014-01-09 14:52:19","2014-01-09 14:51  First Test",2,1500,"2",560,73.4845089563244,"2",TRUE,TRUE,""
"49","2014-01-09 14:52:25","2014-01-09 14:51  First Test",3,1500,"7",1041,0.190114068441065,"7",TRUE,TRUE,""
"54","2014-01-09 14:52:31","2014-01-09 14:51  First Test",4,1500,"7",500,76.3253769752346,"7",TRUE,TRUE,""
"64","2014-01-09 14:52:35","2014-01-09 14:51  First Test",5,1500,"2",640,35.0380951004063,"2",TRUE,TRUE,""
"74","2014-01-09 14:52:40","2014-01-09 14:51  First Test",6,1500,"2",550,78.0298977865807,"2",TRUE,TRUE,""
"83","2014-01-09 14:52:45","2014-01-09 14:51  First Test",7,1500,"7",701,4.35672049617603,"7",TRUE,TRUE,""
"93","2014-01-09 14:52:50","2014-01-09 14:51  First Test",8,1500,"3",781,2.08402608104787,"3",TRUE,TRUE,""
"103","2014-01-09 14:52:55","2014-01-09 14:51  First Test",9,1500,"6",1371,0.190114068441065,"6",TRUE,TRUE,""
"113","2014-01-09 14:53:00","2014-01-09 14:51  First Test",10,1500,"7",801,0.568896470962425,"7",TRUE,TRUE,""
"122","2014-01-09 14:53:05","2014-01-09 14:51  First Test",11,1500,"2",490,91.476673076089,"2",TRUE,TRUE,""
"132","2014-01-09 14:53:11","2014-01-09 14:51  First Test",12,1500,"8",1091,NA,"7",FALSE,TRUE,""
"142","2014-01-09 14:53:15","2014-01-09 14:51  First Test",12,1500,"8",360,NA,"8",TRUE,FALSE,"correction trial"
"151","2014-01-09 14:53:21","2014-01-09 14:51  First Test",12,1500,"5",931,NA,"4",FALSE,TRUE,""
"161","2014-01-09 14:53:25","2014-01-09 14:51  First Test",12,1500,"5",500,NA,"5",TRUE,FALSE,"correction trial"
"17","2014-01-09 14:53:31","2014-01-09 14:51  First Test",12,1500,"5",1662,0.190114068441065,"5",TRUE,TRUE,""
"18","2014-01-09 14:53:36","2014-01-09 14:51  First Test",13,1500,"7",721,2.65219968482991,"7",TRUE,TRUE,""
"19","2014-01-09 14:53:41","2014-01-09 14:51  First Test",14,1500,"4",841,0.568896470962425,"4",TRUE,TRUE,""
"20","2014-01-09 14:53:47","2014-01-09 14:51  First Test",15,1500,"8",781,7.76576211886828,"8",TRUE,TRUE,""
"211","2014-01-09 14:53:52","2014-01-09 14:51  First Test",16,1500,"4",951,0.190114068441065,"4",TRUE,TRUE,""
"221","2014-01-09 14:53:59","2014-01-09 14:51  First Test",17,1500,"4",851,0.568896470962425,"4",TRUE,TRUE,""
"231","2014-01-09 14:54:04","2014-01-09 14:51  First Test",18,1500,"6",941,0.568896470962425,"6",TRUE,TRUE,""
"24","2014-01-09 14:54:09","2014-01-09 14:51  First Test",19,1500,"3",761,3.59915569113331,"3",TRUE,TRUE,""
"25","2014-01-09 14:54:14","2014-01-09 14:51  First Test",20,1500,"7",901,NA,"6",FALSE,TRUE,""
"26","2014-01-09 14:54:18","2014-01-09 14:51  First Test",20,1500,"7",450,NA,"7",TRUE,FALSE,"correction trial"
"27","2014-01-09 14:54:22","2014-01-09 14:51  First Test",20,1500,"4",791,NA,"3",FALSE,TRUE,""
"28","2014-01-09 14:54:27","2014-01-09 14:51  First Test",20,1500,"4",1011,NA,"3",FALSE,FALSE,"correction trial"
"29","2014-01-09 14:54:31","2014-01-09 14:51  First Test",20,1500,"4",430,NA,"4",TRUE,FALSE,"correction trial"
"30","2014-01-09 14:54:38","2014-01-09 14:51  First Test",20,1500,"7",1031,0.190114068441065,"7",TRUE,TRUE,""
"311","2014-01-09 14:54:43","2014-01-09 14:51  First Test",21,1500,"8",815,6.06124130752216,"8",TRUE,TRUE,""
"321","2014-01-09 14:54:49","2014-01-09 14:51  First Test",22,1500,"2",815,4.73550289869739,"2",TRUE,TRUE,""
"331","2014-01-09 14:54:54","2014-01-09 14:51  First Test",23,1500,"5",931,0.190114068441065,"5",TRUE,TRUE,""
"34","2014-01-09 14:54:59","2014-01-09 14:51  First Test",24,1500,"7",1060,NA,"6",FALSE,TRUE,""
"35","2014-01-09 14:55:04","2014-01-09 14:51  First Test",24,1500,"7",339,NA,"7",TRUE,FALSE,"correction trial"
"36","2014-01-09 14:55:09","2014-01-09 14:51  First Test",24,1500,"7",713,3.59915569113331,"7",TRUE,TRUE,""
"37","2014-01-09 14:55:13","2014-01-09 14:51  First Test",25,1500,"3",932,0.568896470962425,"3",TRUE,TRUE,""
"38","2014-01-09 14:55:18","2014-01-09 14:51  First Test",26,1500,"7",824,0.568896470962425,"7",TRUE,TRUE,""
"39","2014-01-09 14:55:23","2014-01-09 14:51  First Test",27,1500,"5",723,NA,"4",FALSE,TRUE,""
"40","2014-01-09 14:55:28","2014-01-09 14:51  First Test",27,1500,"5",356,NA,"5",TRUE,FALSE,"correction trial"
"411","2014-01-09 14:55:36","2014-01-09 14:51  First Test",27,1500,"3",563,52.4620856163889,"3",TRUE,TRUE,""
"421","2014-01-09 14:55:41","2014-01-09 14:51  First Test",28,1500,"6",995,0.190114068441065,"6",TRUE,TRUE,""
"431","2014-01-09 14:55:46","2014-01-09 14:51  First Test",29,1500,"3",741,4.92489409995807,"3",TRUE,TRUE,""
"44","2014-01-09 14:55:51","2014-01-09 14:51  First Test",30,1500,"5",690,4.16732929491535,"5",TRUE,TRUE,""
"45","2014-01-09 14:55:55","2014-01-09 14:51  First Test",31,1500,"8",971,NA,"7",FALSE,TRUE,""
"46","2014-01-09 14:56:00","2014-01-09 14:51  First Test",31,1500,"8",490,NA,"8",TRUE,FALSE,"correction trial"
"47","2014-01-09 14:56:06","2014-01-09 14:51  First Test",31,1500,"8",751,10.9854125402998,"8",TRUE,TRUE,""
"48","2014-01-09 14:56:11","2014-01-09 14:51  First Test",32,1500,"3",690,7.38697971634692,"3",TRUE,TRUE,""
"212","2014-01-10 16:31:05","2014-01-10 16:30 warmup",1,1500,"2",15298,NA,"2",TRUE,FALSE,"too slow"
"312","2014-01-10 16:31:19","2014-01-10 16:30 warmup",1,1500,"7",1067,NA,"6",FALSE,FALSE,"warmup"
"410","2014-01-10 16:31:26","2014-01-10 16:30 warmup",1,1500,"7",820,NA,"7",TRUE,FALSE,"correction trial"
"55","2014-01-10 16:31:31","2014-01-10 16:30 warmup",1,1500,"2",751,NA,"3",FALSE,FALSE,"warmup"
"65","2014-01-10 16:31:38","2014-01-10 16:30 warmup",1,1500,"2",786,NA,"2",TRUE,FALSE,"correction trial"
"75","2014-01-10 16:31:45","2014-01-10 16:30 warmup",1,1500,"6",768,NA,"6",TRUE,FALSE,"warmup"
"84","2014-01-10 16:31:49","2014-01-10 16:30 warmup",2,1500,"4",525,NA,"5",FALSE,FALSE,"warmup"
"94","2014-01-10 16:31:54","2014-01-10 16:30 warmup",2,1500,"4",689,NA,"4",TRUE,FALSE,"correction trial"
"104","2014-01-10 16:32:00","2014-01-10 16:30 warmup",2,1500,"3",756,NA,"3",TRUE,FALSE,"warmup"
"114","2014-01-10 16:32:06","2014-01-10 16:30 warmup",3,1500,"5",634,NA,"5",TRUE,FALSE,"warmup"
"123","2014-01-10 16:32:14","2014-01-10 16:30 warmup",4,1500,"5",618,NA,"5",TRUE,FALSE,"warmup"
"133","2014-01-10 16:32:18","2014-01-10 16:30 warmup",5,1500,"7",717,NA,"7",TRUE,FALSE,"warmup"
"143","2014-01-10 16:32:24","2014-01-10 16:30 warmup",6,1500,"5",476,NA,"5",TRUE,FALSE,"warmup"
"213","2014-01-10 17:40:09","2014-01-10 17:39 warmup",1,1500,"2",1156,NA,"2",TRUE,FALSE,"warmup"
"313","2014-01-10 17:40:16","2014-01-10 17:39 warmup",2,1500,"2",1141,NA,"2",TRUE,FALSE,"warmup"
"412","2014-01-10 17:40:23","2014-01-10 17:39 warmup",3,1500,"3",1066,NA,"3",TRUE,FALSE,"warmup"
"56","2014-01-10 17:40:30","2014-01-10 17:39 warmup",4,1500,"5",1261,NA,"5",TRUE,FALSE,"warmup"
"66","2014-01-10 17:40:37","2014-01-10 17:39 warmup",5,1500,"8",1442,NA,"8",TRUE,FALSE,"warmup"
"76","2014-01-10 17:40:44","2014-01-10 17:39 warmup",6,1500,"5",1096,NA,"5",TRUE,FALSE,"warmup"
"214","2014-01-10 17:41:15","2014-01-10 17:41 warmup",1,1500,"7",1306,NA,"7",TRUE,FALSE,"warmup"
"314","2014-01-10 17:41:23","2014-01-10 17:41 warmup",2,1500,"8",1336,NA,"8",TRUE,FALSE,"warmup"
"413","2014-01-10 17:41:30","2014-01-10 17:41 warmup",3,1500,"5",991,NA,"5",TRUE,FALSE,"warmup"
"57","2014-01-10 17:41:36","2014-01-10 17:41 warmup",4,1500,"6",946,NA,"6",TRUE,FALSE,"warmup"
"67","2014-01-10 17:41:44","2014-01-10 17:41 warmup",5,1500,"8",1336,NA,"8",TRUE,FALSE,"warmup"
"77","2014-01-10 17:41:51","2014-01-10 17:41 warmup",6,1500,"3",1156,NA,"3",TRUE,FALSE,"warmup"
"215","2014-01-10 17:42:26","2014-01-10 17:42 warmup",1,1500,"8",1171,NA,"8",TRUE,FALSE,"warmup"
"315","2014-01-10 17:42:33","2014-01-10 17:42 warmup",2,1500,"4",1126,NA,"4",TRUE,FALSE,"warmup"
"414","2014-01-10 17:42:39","2014-01-10 17:42 warmup",3,1500,"4",1021,NA,"4",TRUE,FALSE,"warmup"
"58","2014-01-10 17:42:46","2014-01-10 17:42 warmup",4,1500,"5",871,NA,"5",TRUE,FALSE,"warmup"
"68","2014-01-10 17:42:54","2014-01-10 17:42 warmup",5,1500,"6",1096,NA,"6",TRUE,FALSE,"warmup"
"78","2014-01-10 17:43:03","2014-01-10 17:42 warmup",6,1500,"4",1021,NA,"4",TRUE,FALSE,"warmup"
"216","2014-01-10 17:43:25","2014-01-10 17:43 warmup",1,1500,"8",1547,NA,"7",FALSE,FALSE,"warmup"
"316","2014-01-10 17:43:32","2014-01-10 17:43 warmup",1,1500,"8",660,NA,"8",TRUE,FALSE,"correction trial"
"415","2014-01-10 17:43:39","2014-01-10 17:43 warmup",1,1500,"4",1066,NA,"4",TRUE,FALSE,"warmup"
"59","2014-01-10 17:43:45","2014-01-10 17:43 warmup",2,1500,"4",1201,NA,"4",TRUE,FALSE,"warmup"
"69","2014-01-10 17:43:52","2014-01-10 17:43 warmup",3,1500,"2",1111,NA,"3",FALSE,FALSE,"warmup"
"79","2014-01-10 17:44:00","2014-01-10 17:43 warmup",3,1500,"2",946,NA,"2",TRUE,FALSE,"correction trial"
"85","2014-01-10 17:44:14","2014-01-10 17:43 warmup",3,1500,"5",1051,NA,"5",TRUE,FALSE,"warmup"
"95","2014-01-10 17:44:30","2014-01-10 17:43 warmup",4,1500,"2",1051,NA,"2",TRUE,FALSE,"warmup"
"105","2014-01-10 17:44:38","2014-01-10 17:43 warmup",5,1500,"5",1111,NA,"5",TRUE,FALSE,"warmup"
"115","2014-01-10 17:44:44","2014-01-10 17:43 warmup",6,1500,"2",1261,NA,"2",TRUE,FALSE,"warmup"
"217","2014-01-10 17:45:22","2014-01-10 17:45 warmup",1,1500,"6",766,NA,"6",TRUE,FALSE,"warmup"
"317","2014-01-10 17:45:30","2014-01-10 17:45 warmup",2,1500,"5",856,NA,"5",TRUE,FALSE,"warmup"
"416","2014-01-10 17:45:36","2014-01-10 17:45 warmup",3,1500,"2",1036,NA,"3",FALSE,FALSE,"warmup"
"510","2014-01-10 17:45:43","2014-01-10 17:45 warmup",3,1500,"2",435,NA,"2",TRUE,FALSE,"correction trial"
"610","2014-01-10 17:47:00","2014-01-10 17:45 warmup",3,1500,"8",590,NA,"7",FALSE,FALSE,"warmup"
"710","2014-01-10 17:47:04","2014-01-10 17:45 warmup",3,1500,"8",222,NA,"8",TRUE,FALSE,"correction trial"
"86","2014-01-10 17:47:07","2014-01-10 17:45 warmup",3,1500,"6",603,NA,"6",TRUE,FALSE,"warmup"
"96","2014-01-10 17:47:10","2014-01-10 17:45 warmup",4,1500,"5",472,NA,"5",TRUE,FALSE,"warmup"
"106","2014-01-10 17:47:13","2014-01-10 17:45 warmup",5,1500,"5",420,NA,"5",TRUE,FALSE,"warmup"
"116","2014-01-10 17:47:16","2014-01-10 17:45 warmup",6,1500,"2",523,NA,"2",TRUE,FALSE,"warmup"
"218","2014-01-10 17:47:37","2014-01-10 17:47  First try with hunt-n-peck method",1,1500,"4",565,37.8789631193165,"4",TRUE,TRUE,""
"318","2014-01-10 17:47:40","2014-01-10 17:47  First try with hunt-n-peck method",2,1500,"2",457,95.2644971013026,"2",TRUE,TRUE,""
"417","2014-01-10 17:47:51","2014-01-10 17:47  First try with hunt-n-peck method",3,1500,"7",698,4.54611169743671,"7",TRUE,TRUE,""
"511","2014-01-10 17:47:55","2014-01-10 17:47  First try with hunt-n-peck method",4,1500,"2",665,25.9473174398936,"2",TRUE,TRUE,""
"611","2014-01-10 17:47:59","2014-01-10 17:47  First try with hunt-n-peck method",5,1500,"5",609,12.689933351646,"5",TRUE,TRUE,""
"711","2014-01-10 17:48:03","2014-01-10 17:47  First try with hunt-n-peck method",6,1500,"4",628,14.2050629617314,"4",TRUE,TRUE,""
"87","2014-01-10 17:48:09","2014-01-10 17:47  First try with hunt-n-peck method",7,1500,"4",618,14.9626277667741,"4",TRUE,TRUE,""
"97","2014-01-10 17:48:14","2014-01-10 17:47  First try with hunt-n-peck method",8,1500,"3",782,2.08402608104787,"3",TRUE,TRUE,""
"107","2014-01-10 17:48:19","2014-01-10 17:47  First try with hunt-n-peck method",9,1500,"3",782,2.08402608104787,"3",TRUE,TRUE,""
"117","2014-01-10 17:48:25","2014-01-10 17:47  First try with hunt-n-peck method",10,1500,"4",798,0.568896470962425,"4",TRUE,TRUE,""
"124","2014-01-10 17:48:32","2014-01-10 17:47  First try with hunt-n-peck method",11,1500,"3",785,2.08402608104787,"3",TRUE,TRUE,""
"134","2014-01-10 17:48:37","2014-01-10 17:47  First try with hunt-n-peck method",12,1500,"4",864,0.568896470962425,"4",TRUE,TRUE,""
"144","2014-01-10 17:48:44","2014-01-10 17:47  First try with hunt-n-peck method",13,1500,"8",946,NA,"7",FALSE,TRUE,""
"152","2014-01-10 17:48:50","2014-01-10 17:47  First try with hunt-n-peck method",13,1500,"8",521,NA,"8",TRUE,FALSE,"correction trial"
"162","2014-01-10 17:48:58","2014-01-10 17:47  First try with hunt-n-peck method",13,1500,"7",961,0.190114068441065,"7",TRUE,TRUE,""
"171","2014-01-10 17:49:05","2014-01-10 17:47  First try with hunt-n-peck method",14,1500,"2",1126,0.568896470962425,"2",TRUE,TRUE,""
"181","2014-01-10 17:49:12","2014-01-10 17:47  First try with hunt-n-peck method",15,1500,"2",1156,0.568896470962425,"2",TRUE,TRUE,""
"191","2014-01-10 17:49:21","2014-01-10 17:47  First try with hunt-n-peck method",16,1500,"3",865,0.947678873483786,"3",TRUE,TRUE,""
"201","2014-01-10 17:49:28","2014-01-10 17:47  First try with hunt-n-peck method",17,1500,"3",1000,0.568896470962425,"3",TRUE,TRUE,""
"219","2014-01-10 17:49:34","2014-01-10 17:47  First try with hunt-n-peck method",18,1500,"2",982,0.568896470962425,"2",TRUE,TRUE,""
"222","2014-01-10 17:49:41","2014-01-10 17:47  First try with hunt-n-peck method",19,1500,"6",912,0.568896470962425,"6",TRUE,TRUE,""
"232","2014-01-10 17:49:47","2014-01-10 17:47  First try with hunt-n-peck method",20,1500,"7",865,0.190114068441065,"7",TRUE,TRUE,""
"241","2014-01-10 17:49:53","2014-01-10 17:47  First try with hunt-n-peck method",21,1500,"5",788,0.190114068441065,"5",TRUE,TRUE,""
"251","2014-01-10 17:49:57","2014-01-10 17:47  First try with hunt-n-peck method",22,1500,"5",620,11.7429773453426,"5",TRUE,TRUE,""
"261","2014-01-10 17:50:02","2014-01-10 17:47  First try with hunt-n-peck method",23,1500,"4",581,23.6746230247654,"4",TRUE,TRUE,""
"271","2014-01-10 17:50:06","2014-01-10 17:47  First try with hunt-n-peck method",24,1500,"5",523,46.4015671760471,"5",TRUE,TRUE,""
"281","2014-01-10 17:50:10","2014-01-10 17:47  First try with hunt-n-peck method",25,1500,"8",612,38.6365279243592,"8",TRUE,TRUE,""
"291","2014-01-10 17:50:14","2014-01-10 17:47  First try with hunt-n-peck method",26,1500,"2",674,23.4852318235047,"2",TRUE,TRUE,""
"301","2014-01-10 17:50:17","2014-01-10 17:47  First try with hunt-n-peck method",27,1500,"6",439,89.7721522647429,"6",TRUE,TRUE,""
"319","2014-01-10 17:50:22","2014-01-10 17:47  First try with hunt-n-peck method",28,1500,"5",439,91.476673076089,"5",TRUE,TRUE,""
"322","2014-01-10 17:50:25","2014-01-10 17:47  First try with hunt-n-peck method",29,1500,"6",431,90.3403258685249,"6",TRUE,TRUE,""
"332","2014-01-10 17:50:29","2014-01-10 17:47  First try with hunt-n-peck method",30,1500,"6",373,96.9690179126487,"6",TRUE,TRUE,""
"341","2014-01-10 17:50:32","2014-01-10 17:47  First try with hunt-n-peck method",31,1500,"5",368,97.9159739189521,"5",TRUE,TRUE,""
"351","2014-01-10 17:50:35","2014-01-10 17:47  First try with hunt-n-peck method",32,1500,"3",426,96.4008443088667,"3",TRUE,TRUE,""
"220","2014-01-12 11:28:53","2014-01-12 11:28 warmup",1,1500,"2",771,NA,"2",TRUE,FALSE,"warmup"
"320","2014-01-12 11:28:57","2014-01-12 11:28 warmup",2,1500,"5",751,NA,"5",TRUE,FALSE,"warmup"
"418","2014-01-12 11:58:27","2014-01-12 11:28 warmup",3,1500,"8",1181,NA,"8",TRUE,FALSE,"warmup"
"512","2014-01-12 11:58:32","2014-01-12 11:28 warmup",4,1500,"6",981,NA,"6",TRUE,FALSE,"warmup"
"612","2014-01-12 11:58:36","2014-01-12 11:28 warmup",5,1500,"5",771,NA,"5",TRUE,FALSE,"warmup"
"712","2014-01-12 11:58:41","2014-01-12 11:28 warmup",6,1500,"6",560,NA,"6",TRUE,FALSE,"warmup"
"223","2014-01-12 11:59:29","2014-01-12 11:58 warmup",1,1500,"7",981,NA,"6",FALSE,FALSE,"warmup"
"323","2014-01-12 11:59:34","2014-01-12 11:58 warmup",1,1500,"7",630,NA,"7",TRUE,FALSE,"correction trial"
"419","2014-01-12 11:59:39","2014-01-12 11:58 warmup",1,1500,"7",925,NA,"7",TRUE,FALSE,"warmup"
"513","2014-01-12 11:59:45","2014-01-12 11:58 warmup",2,1500,"5",842,NA,"5",TRUE,FALSE,"warmup"
"613","2014-01-12 11:59:51","2014-01-12 11:58 warmup",3,1500,"8",803,NA,"7",FALSE,FALSE,"warmup"
"713","2014-01-12 11:59:56","2014-01-12 11:58 warmup",3,1500,"8",437,NA,"7",FALSE,FALSE,"correction trial"
"88","2014-01-12 12:00:01","2014-01-12 11:58 warmup",3,1500,"8",571,NA,"8",TRUE,FALSE,"correction trial"
"98","2014-01-12 12:00:06","2014-01-12 11:58 warmup",3,1500,"2",569,NA,"5",FALSE,FALSE,"warmup"
"108","2014-01-12 12:00:10","2014-01-12 11:58 warmup",3,1500,"2",490,NA,"2",TRUE,FALSE,"correction trial"
"118","2014-01-12 12:00:15","2014-01-12 11:58 warmup",3,1500,"6",928,NA,"6",TRUE,FALSE,"warmup"
"125","2014-01-12 12:00:21","2014-01-12 11:58 warmup",4,1500,"7",1079,NA,"7",TRUE,FALSE,"warmup"
"135","2014-01-12 12:00:26","2014-01-12 11:58 warmup",5,1500,"8",932,NA,"8",TRUE,FALSE,"warmup"
"145","2014-01-12 12:00:31","2014-01-12 11:58 warmup",6,1500,"6",709,NA,"6",TRUE,FALSE,"warmup"
"224","2014-01-12 12:01:04","2014-01-12 12:00 warmup",1,1500,"4",821,NA,"4",TRUE,FALSE,"warmup"
"324","2014-01-12 12:01:10","2014-01-12 12:00 warmup",2,1500,"4",690,NA,"4",TRUE,FALSE,"warmup"
"420","2014-01-12 12:01:14","2014-01-12 12:00 warmup",3,1500,"7",701,NA,"7",TRUE,FALSE,"warmup"
"514","2014-01-12 12:01:19","2014-01-12 12:00 warmup",4,1500,"5",600,NA,"5",TRUE,FALSE,"warmup"
"614","2014-01-12 12:01:24","2014-01-12 12:00 warmup",5,1500,"5",520,NA,"5",TRUE,FALSE,"warmup"
"714","2014-01-12 12:01:29","2014-01-12 12:00 warmup",6,1500,"6",660,NA,"6",TRUE,FALSE,"warmup"
"225","2014-01-12 12:01:49","2014-01-12 12:01 warmup",1,1500,"8",651,NA,"8",TRUE,FALSE,"warmup"
"325","2014-01-12 12:01:54","2014-01-12 12:01 warmup",2,1500,"2",794,NA,"2",TRUE,FALSE,"warmup"
"422","2014-01-12 12:01:58","2014-01-12 12:01 warmup",3,1500,"7",824,NA,"7",TRUE,FALSE,"warmup"
"515","2014-01-12 12:02:03","2014-01-12 12:01 warmup",4,1500,"5",598,NA,"5",TRUE,FALSE,"warmup"
"615","2014-01-12 12:02:08","2014-01-12 12:01 warmup",5,1500,"7",831,NA,"7",TRUE,FALSE,"warmup"
"715","2014-01-12 12:02:13","2014-01-12 12:01 warmup",6,1500,"4",734,NA,"4",TRUE,FALSE,"warmup"
"226","2014-01-12 12:04:42","2014-01-12 12:04  Second try with hunt-n-peck",1,1500,"3",1231,0.190114068441065,"3",TRUE,TRUE,""
"326","2014-01-12 12:04:47","2014-01-12 12:04  Second try with hunt-n-peck",2,1500,"4",701,2.84159088609059,"4",TRUE,TRUE,""
"423","2014-01-12 12:04:51","2014-01-12 12:04  Second try with hunt-n-peck",3,1500,"4",701,2.84159088609059,"4",TRUE,TRUE,""
"516","2014-01-12 12:04:56","2014-01-12 12:04  Second try with hunt-n-peck",4,1500,"6",580,25.1897526348509,"6",TRUE,TRUE,""
"616","2014-01-12 12:05:01","2014-01-12 12:04  Second try with hunt-n-peck",5,1500,"3",610,NA,"4",FALSE,TRUE,""
"716","2014-01-12 12:05:07","2014-01-12 12:04  Second try with hunt-n-peck",5,1500,"3",510,NA,"3",TRUE,FALSE,"correction trial"
"89","2014-01-12 12:05:11","2014-01-12 12:04  Second try with hunt-n-peck",5,1500,"2",771,7.00819731382556,"2",TRUE,TRUE,""
"99","2014-01-12 12:05:19","2014-01-12 12:04  Second try with hunt-n-peck",6,1500,"6",761,1.70524367852651,"6",TRUE,TRUE,""
"109","2014-01-12 12:05:24","2014-01-12 12:04  Second try with hunt-n-peck",7,1500,"6",711,2.84159088609059,"6",TRUE,TRUE,""
"119","2014-01-12 12:05:29","2014-01-12 12:04  Second try with hunt-n-peck",8,1500,"2",931,NA,"3",FALSE,TRUE,""
"126","2014-01-12 12:05:33","2014-01-12 12:04  Second try with hunt-n-peck",8,1500,"2",690,NA,"2",TRUE,FALSE,"correction trial"
"136","2014-01-12 12:05:38","2014-01-12 12:04  Second try with hunt-n-peck",8,1500,"4",660,7.19758851508624,"4",TRUE,TRUE,""
"146","2014-01-12 12:05:43","2014-01-12 12:04  Second try with hunt-n-peck",9,1500,"7",811,0.568896470962425,"7",TRUE,TRUE,""
"153","2014-01-12 12:05:48","2014-01-12 12:04  Second try with hunt-n-peck",10,1500,"8",941,NA,"7",FALSE,TRUE,""
"163","2014-01-12 12:05:52","2014-01-12 12:04  Second try with hunt-n-peck",10,1500,"8",530,NA,"8",TRUE,FALSE,"correction trial"
"172","2014-01-12 12:05:57","2014-01-12 12:04  Second try with hunt-n-peck",10,1500,"7",1101,0.190114068441065,"7",TRUE,TRUE,""
"182","2014-01-12 12:06:02","2014-01-12 12:04  Second try with hunt-n-peck",11,1500,"2",891,1.70524367852651,"2",TRUE,TRUE,""
"192","2014-01-12 12:06:07","2014-01-12 12:04  Second try with hunt-n-peck",12,1500,"7",901,0.190114068441065,"7",TRUE,TRUE,""
"202","2014-01-12 12:06:11","2014-01-12 12:04  Second try with hunt-n-peck",13,1500,"8",971,2.65219968482991,"8",TRUE,TRUE,""
"2110","2014-01-12 12:06:16","2014-01-12 12:04  Second try with hunt-n-peck",14,1500,"2",781,6.44002371004352,"2",TRUE,TRUE,""
"227","2014-01-12 12:06:21","2014-01-12 12:04  Second try with hunt-n-peck",15,1500,"8",841,NA,"7",FALSE,TRUE,""
"233","2014-01-12 12:06:25","2014-01-12 12:04  Second try with hunt-n-peck",15,1500,"8",751,NA,"8",TRUE,FALSE,"correction trial"
"242","2014-01-12 12:06:30","2014-01-12 12:04  Second try with hunt-n-peck",15,1500,"4",901,0.190114068441065,"4",TRUE,TRUE,""
"252","2014-01-12 12:06:35","2014-01-12 12:04  Second try with hunt-n-peck",16,1500,"2",801,5.49306770374012,"2",TRUE,TRUE,""
"262","2014-01-12 12:06:40","2014-01-12 12:04  Second try with hunt-n-peck",17,1500,"2",781,6.44002371004352,"2",TRUE,TRUE,""
"272","2014-01-12 12:06:45","2014-01-12 12:04  Second try with hunt-n-peck",18,1500,"6",911,0.568896470962425,"6",TRUE,TRUE,""
"282","2014-01-12 12:06:50","2014-01-12 12:04  Second try with hunt-n-peck",19,1500,"7",981,0.190114068441065,"7",TRUE,TRUE,""
"292","2014-01-12 12:06:56","2014-01-12 12:04  Second try with hunt-n-peck",20,1500,"8",1021,NA,"7",FALSE,TRUE,""
"302","2014-01-12 12:07:01","2014-01-12 12:04  Second try with hunt-n-peck",20,1500,"8",761,NA,"8",TRUE,FALSE,"correction trial"
"3110","2014-01-12 12:07:05","2014-01-12 12:04  Second try with hunt-n-peck",20,1500,"4",721,2.65219968482991,"4",TRUE,TRUE,""
"327","2014-01-12 12:07:09","2014-01-12 12:04  Second try with hunt-n-peck",21,1500,"5",650,8.71271812517168,"5",TRUE,TRUE,""
"333","2014-01-12 12:07:14","2014-01-12 12:04  Second try with hunt-n-peck",22,1500,"5",670,6.6294149113042,"5",TRUE,TRUE,""
"342","2014-01-12 12:07:19","2014-01-12 12:04  Second try with hunt-n-peck",23,1500,"3",861,0.947678873483786,"3",TRUE,TRUE,""
"352","2014-01-12 12:07:24","2014-01-12 12:04  Second try with hunt-n-peck",24,1500,"4",751,2.08402608104787,"4",TRUE,TRUE,""
"361","2014-01-12 12:07:28","2014-01-12 12:04  Second try with hunt-n-peck",25,1500,"8",981,NA,"7",FALSE,TRUE,""
"371","2014-01-12 12:07:33","2014-01-12 12:04  Second try with hunt-n-peck",25,1500,"8",550,NA,"8",TRUE,FALSE,"correction trial"
"381","2014-01-12 12:07:38","2014-01-12 12:04  Second try with hunt-n-peck",25,1500,"3",761,NA,"4",FALSE,TRUE,""
"391","2014-01-12 12:07:42","2014-01-12 12:04  Second try with hunt-n-peck",25,1500,"3",620,NA,"3",TRUE,FALSE,"correction trial"
"401","2014-01-12 12:07:47","2014-01-12 12:04  Second try with hunt-n-peck",25,1500,"8",1081,1.51585247726583,"8",TRUE,TRUE,""
"4110","2014-01-12 12:07:52","2014-01-12 12:04  Second try with hunt-n-peck",26,1500,"3",781,2.08402608104787,"3",TRUE,TRUE,""
"424","2014-01-12 12:07:56","2014-01-12 12:04  Second try with hunt-n-peck",27,1500,"4",811,0.568896470962425,"4",TRUE,TRUE,""
"432","2014-01-12 12:08:01","2014-01-12 12:04  Second try with hunt-n-peck",28,1500,"6",761,1.70524367852651,"6",TRUE,TRUE,""
"441","2014-01-12 12:08:06","2014-01-12 12:04  Second try with hunt-n-peck",29,1500,"6",829,0.947678873483786,"6",TRUE,TRUE,""
"451","2014-01-12 12:08:11","2014-01-12 12:04  Second try with hunt-n-peck",30,1500,"6",837,0.947678873483786,"6",TRUE,TRUE,""
"461","2014-01-12 12:08:16","2014-01-12 12:04  Second try with hunt-n-peck",31,1500,"8",1094,1.13707007474447,"8",TRUE,TRUE,""
"471","2014-01-12 12:08:21","2014-01-12 12:04  Second try with hunt-n-peck",32,1500,"2",892,NA,"3",FALSE,TRUE,""
"481","2014-01-12 12:08:26","2014-01-12 12:04  Second try with hunt-n-peck",32,1500,"2",1289,NA,"2",TRUE,FALSE,"correction trial"
"491","2014-01-12 12:08:31","2014-01-12 12:04  Second try with hunt-n-peck",32,1500,"2",722,14.2050629617314,"2",TRUE,TRUE,""
"228","2014-01-13 11:45:09","2014-01-13 11:44 warmup",1,1500,"6",919,7.14285714285714,"6",TRUE,FALSE,"warmup"
"328","2014-01-13 11:45:15","2014-01-13 11:44 warmup",2,1500,"2",998,7.14285714285714,"2",TRUE,FALSE,"warmup"
"425","2014-01-13 11:45:23","2014-01-13 11:44 warmup",3,1500,"6",760,68.3673469387755,"6",TRUE,FALSE,"warmup"
"517","2014-01-13 11:45:30","2014-01-13 11:44 warmup",4,1500,"6",702,80.6122448979592,"6",TRUE,FALSE,"warmup"
"617","2014-01-13 11:45:36","2014-01-13 11:44 warmup",5,1500,"2",746,68.3673469387755,"2",TRUE,FALSE,"warmup"
"717","2014-01-13 11:45:41","2014-01-13 11:44 warmup",6,1500,"3",757,80.6122448979592,"3",TRUE,FALSE,"warmup"
"229","2014-01-13 11:46:15","2014-01-13 11:45  Another hunt-n-peck",1,1500,"2",598,47.1591319810898,"2",TRUE,TRUE,""
"329","2014-01-13 11:46:19","2014-01-13 11:45  Another hunt-n-peck",2,1500,"4",658,7.95515332012896,"4",TRUE,TRUE,""
"426","2014-01-13 11:46:24","2014-01-13 11:45  Another hunt-n-peck",3,1500,"7",695,4.73550289869739,"7",TRUE,TRUE,""
"518","2014-01-13 11:46:29","2014-01-13 11:45  Another hunt-n-peck",4,1500,"5",633,9.65967413147508,"5",TRUE,TRUE,""
"618","2014-01-13 11:46:33","2014-01-13 11:45  Another hunt-n-peck",5,1500,"5",513,49.2424351949573,"5",TRUE,TRUE,""
"718","2014-01-13 11:46:38","2014-01-13 11:45  Another hunt-n-peck",6,1500,"5",487,69.8860761323714,"5",TRUE,TRUE,""
"810","2014-01-13 11:46:43","2014-01-13 11:45  Another hunt-n-peck",7,1500,"8",1140,NA,"7",FALSE,TRUE,""
"910","2014-01-13 11:46:48","2014-01-13 11:45  Another hunt-n-peck",7,1500,"8",413,NA,"8",TRUE,FALSE,"correction trial"
"1010","2014-01-13 11:46:55","2014-01-13 11:45  Another hunt-n-peck",7,1500,"8",1241,NA,"7",FALSE,TRUE,""
"1110","2014-01-13 11:47:01","2014-01-13 11:45  Another hunt-n-peck",7,1500,"8",616,NA,"8",TRUE,FALSE,"correction trial"
"127","2014-01-13 11:47:07","2014-01-13 11:45  Another hunt-n-peck",7,1500,"5",870,0.190114068441065,"5",TRUE,TRUE,""
"137","2014-01-13 11:47:13","2014-01-13 11:45  Another hunt-n-peck",8,1500,"6",830,0.947678873483786,"6",TRUE,TRUE,""
"147","2014-01-13 11:47:19","2014-01-13 11:45  Another hunt-n-peck",9,1500,"6",807,1.32646127600515,"6",TRUE,TRUE,""
"154","2014-01-13 11:47:25","2014-01-13 11:45  Another hunt-n-peck",10,1500,"7",843,0.379505269701745,"7",TRUE,TRUE,""
"164","2014-01-13 11:47:30","2014-01-13 11:45  Another hunt-n-peck",11,1500,"7",976,0.190114068441065,"7",TRUE,TRUE,""
"173","2014-01-13 11:47:35","2014-01-13 11:45  Another hunt-n-peck",12,1500,"8",1030,1.89463487978719,"8",TRUE,TRUE,""
"183","2014-01-13 11:47:40","2014-01-13 11:45  Another hunt-n-peck",13,1500,"2",839,4.16732929491535,"2",TRUE,TRUE,""
"193","2014-01-13 11:47:46","2014-01-13 11:45  Another hunt-n-peck",14,1500,"7",826,0.568896470962425,"7",TRUE,TRUE,""
"203","2014-01-13 11:47:50","2014-01-13 11:45  Another hunt-n-peck",15,1500,"5",474,77.6511153840593,"5",TRUE,TRUE,""
"2111","2014-01-13 11:47:54","2014-01-13 11:45  Another hunt-n-peck",16,1500,"3",746,4.73550289869739,"3",TRUE,TRUE,""
"2210","2014-01-13 11:47:57","2014-01-13 11:45  Another hunt-n-peck",17,1500,"2",632,37.1213983142737,"2",TRUE,TRUE,""
"234","2014-01-13 11:48:02","2014-01-13 11:45  Another hunt-n-peck",18,1500,"8",838,4.16732929491535,"8",TRUE,TRUE,""
"243","2014-01-13 11:48:06","2014-01-13 11:45  Another hunt-n-peck",19,1500,"5",412,93.7493674912172,"5",TRUE,TRUE,""
"253","2014-01-13 11:48:10","2014-01-13 11:45  Another hunt-n-peck",20,1500,"5",460,85.0373722332259,"5",TRUE,TRUE,""
"263","2014-01-13 11:48:13","2014-01-13 11:45  Another hunt-n-peck",21,1500,"5",383,97.5371915164308,"5",TRUE,TRUE,""
"273","2014-01-13 11:48:16","2014-01-13 11:45  Another hunt-n-peck",22,1500,"2",610,42.8031343520942,"2",TRUE,TRUE,""
"283","2014-01-13 11:48:20","2014-01-13 11:45  Another hunt-n-peck",23,1500,"2",663,26.1367086411543,"2",TRUE,TRUE,""
"293","2014-01-13 11:48:25","2014-01-13 11:45  Another hunt-n-peck",24,1500,"4",620,14.7732365655135,"4",TRUE,TRUE,""
"303","2014-01-13 11:48:29","2014-01-13 11:45  Another hunt-n-peck",25,1500,"4",738,NA,"3",FALSE,TRUE,""
"3111","2014-01-13 11:48:33","2014-01-13 11:45  Another hunt-n-peck",25,1500,"4",397,NA,"4",TRUE,FALSE,"correction trial"
"3210","2014-01-13 11:48:38","2014-01-13 11:45  Another hunt-n-peck",25,1500,"7",1010,0.190114068441065,"7",TRUE,TRUE,""
"334","2014-01-13 11:48:43","2014-01-13 11:45  Another hunt-n-peck",26,1500,"5",541,42.6137431508335,"5",TRUE,TRUE,""
"343","2014-01-13 11:48:48","2014-01-13 11:45  Another hunt-n-peck",27,1500,"7",894,0.190114068441065,"7",TRUE,TRUE,""
"353","2014-01-13 11:48:54","2014-01-13 11:45  Another hunt-n-peck",28,1500,"7",940,0.190114068441065,"7",TRUE,TRUE,""
"362","2014-01-13 11:49:00","2014-01-13 11:45  Another hunt-n-peck",29,1500,"7",807,0.568896470962425,"7",TRUE,TRUE,""
"372","2014-01-13 11:49:06","2014-01-13 11:45  Another hunt-n-peck",30,1500,"8",1147,0.758287672223106,"8",TRUE,TRUE,""
"382","2014-01-13 11:49:12","2014-01-13 11:45  Another hunt-n-peck",31,1500,"4",1040,0.190114068441065,"4",TRUE,TRUE,""
"392","2014-01-13 11:49:19","2014-01-13 11:45  Another hunt-n-peck",32,1500,"5",776,0.568896470962425,"5",TRUE,TRUE,""
"230","2014-01-13 14:43:09","2014-01-13 14:43 warmup",1,1500,"5",560,32,"5",TRUE,FALSE,"warmup"
"330","2014-01-13 14:43:13","2014-01-13 14:43 warmup",2,1500,"5",560,32,"5",TRUE,FALSE,"warmup"
"427","2014-01-13 14:43:18","2014-01-13 14:43 warmup",3,1500,"3",680,86,"3",TRUE,FALSE,"warmup"
"519","2014-01-13 14:43:23","2014-01-13 14:43 warmup",4,1500,"5",570,32,"5",TRUE,FALSE,"warmup"
"619","2014-01-13 14:43:27","2014-01-13 14:43 warmup",5,1500,"6",660,77,"6",TRUE,FALSE,"warmup"
"719","2014-01-13 14:43:33","2014-01-13 14:43 warmup",6,1500,"7",721,86,"7",TRUE,FALSE,"warmup"
"235","2014-01-13 14:44:01","2014-01-13 14:43  ",1,1500,"5",480,73.8632913588457,"5",TRUE,TRUE,""
"335","2014-01-13 14:44:05","2014-01-13 14:43  ",2,1500,"7",821,0.568896470962425,"7",TRUE,TRUE,""
"428","2014-01-13 14:44:10","2014-01-13 14:43  ",3,1500,"7",741,2.46280848356923,"7",TRUE,TRUE,""
"520","2014-01-13 14:44:16","2014-01-13 14:43  ",4,1500,"2",881,1.89463487978719,"2",TRUE,TRUE,""
"620","2014-01-13 14:44:20","2014-01-13 14:43  ",5,1500,"6",610,17.0459309806416,"6",TRUE,TRUE,""
"720","2014-01-13 14:44:25","2014-01-13 14:43  ",6,1500,"6",570,30.4927062701499,"6",TRUE,TRUE,""
"811","2014-01-13 14:44:30","2014-01-13 14:43  ",7,1500,"2",741,NA,"3",FALSE,TRUE,""
"911","2014-01-13 14:44:35","2014-01-13 14:43  ",7,1500,"2",450,NA,"2",TRUE,FALSE,"correction trial"
"1011","2014-01-13 14:44:40","2014-01-13 14:43  ",7,1500,"8",640,NA,"7",FALSE,TRUE,""
"1111","2014-01-13 14:44:44","2014-01-13 14:43  ",7,1500,"8",290,NA,"8",TRUE,FALSE,"correction trial"
"128","2014-01-13 14:44:48","2014-01-13 14:43  ",7,1500,"6",570,30.4927062701499,"6",TRUE,TRUE,""
"138","2014-01-13 14:44:53","2014-01-13 14:43  ",8,1500,"4",650,9.84906533273576,"4",TRUE,TRUE,""
"148","2014-01-13 14:44:57","2014-01-13 14:43  ",9,1500,"3",630,23.2958406222441,"3",TRUE,TRUE,""
"155","2014-01-13 14:45:02","2014-01-13 14:43  ",10,1500,"2",690,18.1822781882057,"2",TRUE,TRUE,""
"165","2014-01-13 14:45:07","2014-01-13 14:43  ",11,1500,"3",751,3.78854689239399,"3",TRUE,TRUE,""
"174","2014-01-13 14:45:12","2014-01-13 14:43  ",12,1500,"2",761,8.14454452138964,"2",TRUE,TRUE,""
"184","2014-01-13 14:45:17","2014-01-13 14:43  ",13,1500,"2",701,16.2883661755989,"2",TRUE,TRUE,""
"194","2014-01-13 14:45:21","2014-01-13 14:43  ",14,1500,"2",640,35.0380951004063,"2",TRUE,TRUE,""
"204","2014-01-13 14:45:26","2014-01-13 14:43  ",15,1500,"8",731,NA,"7",FALSE,TRUE,""
"2112","2014-01-13 14:45:30","2014-01-13 14:43  ",15,1500,"8",741,NA,"8",TRUE,FALSE,"correction trial"
"2211","2014-01-13 14:45:35","2014-01-13 14:43  ",15,1500,"7",841,0.568896470962425,"7",TRUE,TRUE,""
"236","2014-01-13 14:45:39","2014-01-13 14:43  ",16,1500,"2",650,NA,"3",FALSE,TRUE,""
"244","2014-01-13 14:45:44","2014-01-13 14:43  ",16,1500,"2",420,NA,"2",TRUE,FALSE,"correction trial"
"254","2014-01-13 14:45:49","2014-01-13 14:43  ",16,1500,"8",831,4.73550289869739,"8",TRUE,TRUE,""
"264","2014-01-13 14:45:54","2014-01-13 14:43  ",17,1500,"8",931,3.03098208735127,"8",TRUE,TRUE,""
"274","2014-01-13 14:45:58","2014-01-13 14:43  ",18,1500,"4",791,0.947678873483786,"4",TRUE,TRUE,""
"284","2014-01-13 14:46:03","2014-01-13 14:43  ",19,1500,"2",771,7.00819731382556,"2",TRUE,TRUE,""
"294","2014-01-13 14:46:08","2014-01-13 14:43  ",20,1500,"8",711,15.3414101692955,"8",TRUE,TRUE,""
"304","2014-01-13 14:46:12","2014-01-13 14:43  ",21,1500,"3",731,5.49306770374012,"3",TRUE,TRUE,""
"3112","2014-01-13 14:46:17","2014-01-13 14:43  ",22,1500,"7",580,NA,"6",FALSE,TRUE,""
"3211","2014-01-13 14:46:21","2014-01-13 14:43  ",22,1500,"7",380,NA,"7",TRUE,FALSE,"correction trial"
"336","2014-01-13 14:46:25","2014-01-13 14:43  ",22,1500,"6",650,8.90210932643236,"6",TRUE,TRUE,""
"344","2014-01-13 14:46:30","2014-01-13 14:43  ",23,1500,"5",520,47.7273055848718,"5",TRUE,TRUE,""
"354","2014-01-13 14:46:34","2014-01-13 14:43  ",24,1500,"6",640,11.5535861440819,"6",TRUE,TRUE,""
"363","2014-01-13 14:46:39","2014-01-13 14:43  ",25,1500,"6",580,NA,"7",FALSE,TRUE,""
"373","2014-01-13 14:46:43","2014-01-13 14:43  ",25,1500,"6",470,NA,"6",TRUE,FALSE,"correction trial"
"383","2014-01-13 14:46:48","2014-01-13 14:43  ",25,1500,"8",680,21.4019286096373,"8",TRUE,TRUE,""
"393","2014-01-13 14:46:53","2014-01-13 14:43  ",26,1500,"6",751,NA,"7",FALSE,TRUE,""
"402","2014-01-13 14:46:57","2014-01-13 14:43  ",26,1500,"6",430,NA,"6",TRUE,FALSE,"correction trial"
"4111","2014-01-13 14:47:02","2014-01-13 14:43  ",26,1500,"4",761,2.08402608104787,"4",TRUE,TRUE,""
"429","2014-01-13 14:47:07","2014-01-13 14:43  ",27,1500,"7",771,0.758287672223106,"7",TRUE,TRUE,""
"433","2014-01-13 14:47:12","2014-01-13 14:43  ",28,1500,"4",751,2.08402608104787,"4",TRUE,TRUE,""
"442","2014-01-13 14:47:17","2014-01-13 14:43  ",29,1500,"5",680,5.30367650247944,"5",TRUE,TRUE,""
"452","2014-01-13 14:47:22","2014-01-13 14:43  ",30,1500,"2",851,3.78854689239399,"2",TRUE,TRUE,""
"462","2014-01-13 14:47:26","2014-01-13 14:43  ",31,1500,"4",670,6.06124130752216,"4",TRUE,TRUE,""
"472","2014-01-13 14:47:31","2014-01-13 14:43  ",32,1500,"3",771,NA,"2",FALSE,TRUE,""
"482","2014-01-13 14:47:35","2014-01-13 14:43  ",32,1500,"3",490,NA,"3",TRUE,FALSE,"correction trial"
"492","2014-01-13 14:47:40","2014-01-13 14:43  ",32,1500,"6",590,21.7807110121586,"6",TRUE,TRUE,""
"237","2014-01-13 18:29:08","2014-01-13 18:28  Before supper",1,1500,"7",891,0.190114068441065,"7",TRUE,TRUE,""
"337","2014-01-13 18:29:12","2014-01-13 18:28  Before supper",2,1500,"8",791,7.00819731382556,"8",TRUE,TRUE,""
"430","2014-01-13 18:29:17","2014-01-13 18:28  Before supper",3,1500,"8",851,NA,"7",FALSE,TRUE,""
"521","2014-01-13 18:29:21","2014-01-13 18:28  Before supper",3,1500,"8",310,NA,"8",TRUE,FALSE,"correction trial"
"621","2014-01-13 18:29:26","2014-01-13 18:28  Before supper",3,1500,"6",751,NA,"4",FALSE,TRUE,""
"721","2014-01-13 18:29:30","2014-01-13 18:28  Before supper",3,1500,"6",390,NA,"6",TRUE,FALSE,"correction trial"
"812","2014-01-13 18:29:35","2014-01-13 18:28  Before supper",3,1500,"5",610,12.5005421503853,"5",TRUE,TRUE,""
"912","2014-01-13 18:29:40","2014-01-13 18:28  Before supper",4,1500,"8",791,7.00819731382556,"8",TRUE,TRUE,""
"1012","2014-01-13 18:29:45","2014-01-13 18:28  Before supper",5,1500,"2",851,NA,"3",FALSE,TRUE,""
"1112","2014-01-13 18:29:50","2014-01-13 18:28  Before supper",5,1500,"2",570,NA,"2",TRUE,FALSE,"correction trial"
"129","2014-01-13 18:29:55","2014-01-13 18:28  Before supper",5,1500,"7",1011,0.190114068441065,"7",TRUE,TRUE,""
"139","2014-01-13 18:30:00","2014-01-13 18:28  Before supper",6,1500,"2",931,1.51585247726583,"2",TRUE,TRUE,""
"149","2014-01-13 18:30:05","2014-01-13 18:28  Before supper",7,1500,"5",550,38.8259191256199,"5",TRUE,TRUE,""
"156","2014-01-13 18:30:10","2014-01-13 18:28  Before supper",8,1500,"6",781,1.70524367852651,"6",TRUE,TRUE,""
"166","2014-01-13 18:30:14","2014-01-13 18:28  Before supper",9,1500,"3",741,4.92489409995807,"3",TRUE,TRUE,""
"175","2014-01-13 18:30:19","2014-01-13 18:28  Before supper",10,1500,"7",680,5.30367650247944,"7",TRUE,TRUE,""
"185","2014-01-13 18:30:23","2014-01-13 18:28  Before supper",11,1500,"6",550,39.9622663331839,"6",TRUE,TRUE,""
"195","2014-01-13 18:30:27","2014-01-13 18:28  Before supper",12,1500,"3",490,85.0373722332259,"3",TRUE,TRUE,""
"205","2014-01-13 18:30:32","2014-01-13 18:28  Before supper",13,1500,"7",630,15.3414101692955,"7",TRUE,TRUE,""
"2113","2014-01-13 18:30:37","2014-01-13 18:28  Before supper",14,1500,"4",600,18.5610605907271,"4",TRUE,TRUE,""
"2212","2014-01-13 18:30:41","2014-01-13 18:28  Before supper",15,1500,"7",610,19.3186253957698,"7",TRUE,TRUE,""
"238","2014-01-13 18:30:46","2014-01-13 18:28  Before supper",16,1500,"8",640,NA,"7",FALSE,TRUE,""
"245","2014-01-13 18:30:50","2014-01-13 18:28  Before supper",16,1500,"8",500,NA,"8",TRUE,FALSE,"correction trial"
"255","2014-01-13 18:30:55","2014-01-13 18:28  Before supper",16,1500,"4",680,5.49306770374012,"4",TRUE,TRUE,""
"265","2014-01-13 18:30:59","2014-01-13 18:28  Before supper",17,1500,"4",480,74.4314649626278,"4",TRUE,TRUE,""
"275","2014-01-13 18:31:04","2014-01-13 18:28  Before supper",18,1500,"2",731,11.9323685466032,"2",TRUE,TRUE,""
"285","2014-01-13 18:31:08","2014-01-13 18:28  Before supper",19,1500,"6",640,11.5535861440819,"6",TRUE,TRUE,""
"295","2014-01-13 18:31:13","2014-01-13 18:28  Before supper",20,1500,"8",650,29.9245326663679,"8",TRUE,TRUE,""
"305","2014-01-13 18:31:17","2014-01-13 18:28  Before supper",21,1500,"4",580,NA,"3",FALSE,TRUE,""
"3113","2014-01-13 18:31:21","2014-01-13 18:28  Before supper",21,1500,"4",420,NA,"4",TRUE,FALSE,"correction trial"
"3212","2014-01-13 18:31:26","2014-01-13 18:28  Before supper",21,1500,"8",690,NA,"7",FALSE,TRUE,""
"338","2014-01-13 18:31:31","2014-01-13 18:28  Before supper",21,1500,"8",450,NA,"8",TRUE,FALSE,"correction trial"
"345","2014-01-13 18:31:35","2014-01-13 18:28  Before supper",21,1500,"8",660,27.8412294525004,"8",TRUE,TRUE,""
"355","2014-01-13 18:31:41","2014-01-13 18:28  Before supper",22,1500,"5",550,38.8259191256199,"5",TRUE,TRUE,""
"364","2014-01-13 18:31:45","2014-01-13 18:28  Before supper",23,1500,"3",690,7.38697971634692,"3",TRUE,TRUE,""
"374","2014-01-13 18:31:49","2014-01-13 18:28  Before supper",24,1500,"5",490,67.2345993147219,"5",TRUE,TRUE,""
"384","2014-01-13 18:31:54","2014-01-13 18:28  Before supper",25,1500,"3",600,30.8714886726713,"3",TRUE,TRUE,""
"394","2014-01-13 18:31:59","2014-01-13 18:28  Before supper",26,1500,"5",470,79.9238097991875,"5",TRUE,TRUE,""
"403","2014-01-13 18:32:03","2014-01-13 18:28  Before supper",27,1500,"8",831,4.73550289869739,"8",TRUE,TRUE,""
"4112","2014-01-13 18:32:08","2014-01-13 18:28  Before supper",28,1500,"4",660,7.19758851508624,"4",TRUE,TRUE,""
"4210","2014-01-13 18:32:13","2014-01-13 18:28  Before supper",29,1500,"8",620,37.5001807167951,"8",TRUE,TRUE,""
"434","2014-01-13 18:32:17","2014-01-13 18:28  Before supper",30,1500,"8",550,69.3179025285894,"8",TRUE,TRUE,""
"443","2014-01-13 18:32:21","2014-01-13 18:28  Before supper",31,1500,"8",540,72.9163353525423,"8",TRUE,TRUE,""
"453","2014-01-13 18:32:26","2014-01-13 18:28  Before supper",32,1500,"3",690,7.38697971634692,"3",TRUE,TRUE,""
"239","2014-01-14 08:11:06","2014-01-14 08:10 warmup",1,1500,"2",731,56.5082644628099,"2",TRUE,FALSE,"warmup"
"339","2014-01-14 08:11:10","2014-01-14 08:10 warmup",2,1500,"4",711,45.6611570247934,"4",TRUE,FALSE,"warmup"
"435","2014-01-14 08:11:15","2014-01-14 08:10 warmup",3,1500,"7",731,80.3719008264463,"7",TRUE,FALSE,"warmup"
"522","2014-01-14 08:11:19","2014-01-14 08:10 warmup",4,1500,"8",590,89.0495867768595,"8",TRUE,FALSE,"warmup"
"622","2014-01-14 08:11:25","2014-01-14 08:10 warmup",5,1500,"2",801,30.4752066115703,"2",TRUE,FALSE,"warmup"
"722","2014-01-14 08:11:31","2014-01-14 08:10 warmup",6,1500,"4",640,80.3719008264463,"4",TRUE,FALSE,"warmup"
"240","2014-01-14 08:11:58","2014-01-14 08:11  Just had breakfast",1,1500,"2",680,21.7807110121586,"2",TRUE,TRUE,""
"340","2014-01-14 08:12:02","2014-01-14 08:11  Just had breakfast",2,1500,"5",570,NA,"4",FALSE,TRUE,""
"436","2014-01-14 08:12:07","2014-01-14 08:11  Just had breakfast",2,1500,"5",470,NA,"5",TRUE,FALSE,"correction trial"
"523","2014-01-14 08:12:12","2014-01-14 08:11  Just had breakfast",2,1500,"7",701,NA,"6",FALSE,TRUE,""
"623","2014-01-14 08:12:16","2014-01-14 08:11  Just had breakfast",2,1500,"7",320,NA,"7",TRUE,FALSE,"correction trial"
"723","2014-01-14 08:12:21","2014-01-14 08:11  Just had breakfast",2,1500,"3",660,14.3944541629921,"3",TRUE,TRUE,""
"813","2014-01-14 08:12:25","2014-01-14 08:11  Just had breakfast",3,1500,"3",650,17.8034957856843,"3",TRUE,TRUE,""
"913","2014-01-14 08:12:29","2014-01-14 08:11  Just had breakfast",4,1500,"8",590,NA,"7",FALSE,TRUE,""
"1013","2014-01-14 08:12:35","2014-01-14 08:11  Just had breakfast",4,1500,"8",380,NA,"8",TRUE,FALSE,"correction trial"
"1113","2014-01-14 08:12:40","2014-01-14 08:11  Just had breakfast",4,1500,"8",640,32.7654006852781,"8",TRUE,TRUE,""
"1210","2014-01-14 08:12:44","2014-01-14 08:11  Just had breakfast",5,1500,"4",500,63.636166490769,"4",TRUE,TRUE,""
"1310","2014-01-14 08:12:49","2014-01-14 08:11  Just had breakfast",6,1500,"6",660,NA,"7",FALSE,TRUE,""
"1410","2014-01-14 08:12:53","2014-01-14 08:11  Just had breakfast",6,1500,"6",330,NA,"6",TRUE,FALSE,"correction trial"
"157","2014-01-14 08:12:57","2014-01-14 08:11  Just had breakfast",6,1500,"4",520,56.2499096416024,"4",TRUE,TRUE,""
"167","2014-01-14 08:13:02","2014-01-14 08:11  Just had breakfast",7,1500,"8",761,9.84906533273576,"8",TRUE,TRUE,""
"176","2014-01-14 08:13:06","2014-01-14 08:11  Just had breakfast",8,1500,"6",670,7.38697971634692,"6",TRUE,TRUE,""
"186","2014-01-14 08:13:11","2014-01-14 08:11  Just had breakfast",9,1500,"7",580,33.5229654903208,"7",TRUE,TRUE,""
"196","2014-01-14 08:13:16","2014-01-14 08:11  Just had breakfast",10,1500,"2",690,18.1822781882057,"2",TRUE,TRUE,""
"206","2014-01-14 08:13:20","2014-01-14 08:11  Just had breakfast",11,1500,"5",590,15.3414101692955,"5",TRUE,TRUE,""
"2114","2014-01-14 08:13:25","2014-01-14 08:11  Just had breakfast",12,1500,"2",690,18.1822781882057,"2",TRUE,TRUE,""
"2213","2014-01-14 08:13:30","2014-01-14 08:11  Just had breakfast",13,1500,"5",500,58.3332128554699,"5",TRUE,TRUE,""
"2310","2014-01-14 08:13:34","2014-01-14 08:11  Just had breakfast",14,1500,"3",660,14.3944541629921,"3",TRUE,TRUE,""
"246","2014-01-14 08:13:39","2014-01-14 08:11  Just had breakfast",15,1500,"4",590,21.2125374083766,"4",TRUE,TRUE,""
"256","2014-01-14 08:13:44","2014-01-14 08:11  Just had breakfast",16,1500,"5",610,12.5005421503853,"5",TRUE,TRUE,""
"266","2014-01-14 08:13:48","2014-01-14 08:11  Just had breakfast",17,1500,"4",510,59.0907776605127,"4",TRUE,TRUE,""
"276","2014-01-14 08:13:52","2014-01-14 08:11  Just had breakfast",18,1500,"7",831,0.568896470962425,"7",TRUE,TRUE,""
"286","2014-01-14 08:13:57","2014-01-14 08:11  Just had breakfast",19,1500,"8",831,NA,"7",FALSE,TRUE,""
"296","2014-01-14 08:14:02","2014-01-14 08:11  Just had breakfast",19,1500,"8",370,NA,"8",TRUE,FALSE,"correction trial"
"306","2014-01-14 08:14:07","2014-01-14 08:11  Just had breakfast",19,1500,"2",690,18.1822781882057,"2",TRUE,TRUE,""
"3114","2014-01-14 08:14:11","2014-01-14 08:11  Just had breakfast",20,1500,"3",690,7.38697971634692,"3",TRUE,TRUE,""
"3213","2014-01-14 08:14:16","2014-01-14 08:11  Just had breakfast",21,1500,"8",801,6.44002371004352,"8",TRUE,TRUE,""
"3310","2014-01-14 08:14:20","2014-01-14 08:11  Just had breakfast",22,1500,"8",761,9.84906533273576,"8",TRUE,TRUE,""
"346","2014-01-14 08:14:25","2014-01-14 08:11  Just had breakfast",23,1500,"6",650,8.90210932643236,"6",TRUE,TRUE,""
"356","2014-01-14 08:14:29","2014-01-14 08:11  Just had breakfast",24,1500,"8",821,5.6824589050008,"8",TRUE,TRUE,""
"365","2014-01-14 08:14:34","2014-01-14 08:11  Just had breakfast",25,1500,"7",991,0.190114068441065,"7",TRUE,TRUE,""
"375","2014-01-14 08:14:39","2014-01-14 08:11  Just had breakfast",26,1500,"5",600,14.0156717604707,"5",TRUE,TRUE,""
"385","2014-01-14 08:14:43","2014-01-14 08:11  Just had breakfast",27,1500,"6",610,17.0459309806416,"6",TRUE,TRUE,""
"395","2014-01-14 08:14:48","2014-01-14 08:11  Just had breakfast",28,1500,"3",660,14.3944541629921,"3",TRUE,TRUE,""
"404","2014-01-14 08:14:53","2014-01-14 08:11  Just had breakfast",29,1500,"8",751,10.9854125402998,"8",TRUE,TRUE,""
"4113","2014-01-14 08:14:57","2014-01-14 08:11  Just had breakfast",30,1500,"3",711,5.49306770374012,"3",TRUE,TRUE,""
"4211","2014-01-14 08:15:02","2014-01-14 08:11  Just had breakfast",31,1500,"8",761,9.84906533273576,"8",TRUE,TRUE,""
"437","2014-01-14 08:15:07","2014-01-14 08:11  Just had breakfast",32,1500,"8",680,21.4019286096373,"8",TRUE,TRUE,""
"247","2014-01-14 10:36:28","2014-01-14 10:36 warmup",1,1500,"3",851,19.0051020408163,"3",TRUE,FALSE,"warmup"
"347","2014-01-14 10:36:32","2014-01-14 10:36 warmup",2,1500,"6",640,60.3316326530612,"6",TRUE,FALSE,"warmup"
"438","2014-01-14 10:36:37","2014-01-14 10:36 warmup",3,1500,"5",570,39.6683673469388,"5",TRUE,FALSE,"warmup"
"524","2014-01-14 10:36:42","2014-01-14 10:36 warmup",4,1500,"5",530,50,"5",TRUE,FALSE,"warmup"
"624","2014-01-14 10:36:46","2014-01-14 10:36 warmup",5,1500,"5",530,50,"5",TRUE,FALSE,"warmup"
"724","2014-01-14 10:36:51","2014-01-14 10:36 warmup",6,1500,"2",801,31.0586734693878,"2",TRUE,FALSE,"warmup"
"248","2014-01-14 10:37:41","2014-01-14 10:37  Before lunch",1,1500,"8",831,NA,"7",FALSE,TRUE,""
"348","2014-01-14 10:37:45","2014-01-14 10:37  Before lunch",1,1500,"8",470,NA,"8",TRUE,FALSE,"correction trial"
"439","2014-01-14 10:37:50","2014-01-14 10:37  Before lunch",1,1500,"2",721,14.3944541629921,"2",TRUE,TRUE,""
"525","2014-01-14 10:37:54","2014-01-14 10:37  Before lunch",2,1500,"5",550,38.8259191256199,"5",TRUE,TRUE,""
"625","2014-01-14 10:37:59","2014-01-14 10:37  Before lunch",3,1500,"3",590,36.5532247104917,"3",TRUE,TRUE,""
"725","2014-01-14 10:38:04","2014-01-14 10:37  Before lunch",4,1500,"2",570,NA,"3",FALSE,TRUE,""
"814","2014-01-14 10:38:08","2014-01-14 10:37  Before lunch",4,1500,"2",370,NA,"3",FALSE,FALSE,"correction trial"
"914","2014-01-14 10:38:12","2014-01-14 10:37  Before lunch",4,1500,"2",440,NA,"2",TRUE,FALSE,"correction trial"
"1014","2014-01-14 10:38:17","2014-01-14 10:37  Before lunch",4,1500,"6",630,12.5005421503853,"6",TRUE,TRUE,""
"1114","2014-01-14 10:38:21","2014-01-14 10:37  Before lunch",5,1500,"3",540,69.8860761323714,"3",TRUE,TRUE,""
"1211","2014-01-14 10:38:26","2014-01-14 10:37  Before lunch",6,1500,"2",640,35.0380951004063,"2",TRUE,TRUE,""
"1311","2014-01-14 10:38:31","2014-01-14 10:37  Before lunch",7,1500,"5",540,43.9394815596582,"5",TRUE,TRUE,""
"1411","2014-01-14 10:38:35","2014-01-14 10:37  Before lunch",8,1500,"2",590,51.3257384088248,"2",TRUE,TRUE,""
"158","2014-01-14 10:38:40","2014-01-14 10:37  Before lunch",9,1500,"3",680,9.28089172895372,"3",TRUE,TRUE,""
"168","2014-01-14 10:38:44","2014-01-14 10:37  Before lunch",10,1500,"6",640,11.5535861440819,"6",TRUE,TRUE,""
"177","2014-01-14 10:38:49","2014-01-14 10:37  Before lunch",11,1500,"3",680,9.28089172895372,"3",TRUE,TRUE,""
"187","2014-01-14 10:38:53","2014-01-14 10:37  Before lunch",12,1500,"5",580,18.3716693894664,"5",TRUE,TRUE,""
"197","2014-01-14 10:38:58","2014-01-14 10:37  Before lunch",13,1500,"5",470,79.9238097991875,"5",TRUE,TRUE,""
"207","2014-01-14 10:39:02","2014-01-14 10:37  Before lunch",14,1500,"3",550,67.6133817172433,"3",TRUE,TRUE,""
"2115","2014-01-14 10:39:07","2014-01-14 10:37  Before lunch",15,1500,"5",510,50.9469560063034,"5",TRUE,TRUE,""
"2214","2014-01-14 10:39:11","2014-01-14 10:37  Before lunch",16,1500,"6",560,35.9850511067097,"6",TRUE,TRUE,""
"2311","2014-01-14 10:39:15","2014-01-14 10:37  Before lunch",17,1500,"5",470,79.9238097991875,"5",TRUE,TRUE,""
"249","2014-01-14 10:39:20","2014-01-14 10:37  Before lunch",18,1500,"7",550,56.6286920441238,"7",TRUE,TRUE,""
"257","2014-01-14 10:39:25","2014-01-14 10:37  Before lunch",19,1500,"4",570,NA,"3",FALSE,TRUE,""
"267","2014-01-14 10:39:29","2014-01-14 10:37  Before lunch",19,1500,"4",480,NA,"4",TRUE,FALSE,"correction trial"
"277","2014-01-14 10:39:36","2014-01-14 10:37  Before lunch",19,1500,"8",1842,0.379505269701745,"8",TRUE,TRUE,""
"287","2014-01-14 10:39:40","2014-01-14 10:37  Before lunch",20,1500,"5",550,38.8259191256199,"5",TRUE,TRUE,""
"297","2014-01-14 10:39:45","2014-01-14 10:37  Before lunch",21,1500,"7",640,12.8793245529066,"7",TRUE,TRUE,""
"307","2014-01-14 10:39:49","2014-01-14 10:37  Before lunch",22,1500,"3",610,28.2200118550218,"3",TRUE,TRUE,""
"3115","2014-01-14 10:39:54","2014-01-14 10:37  Before lunch",23,1500,"2",630,NA,"3",FALSE,TRUE,""
"3214","2014-01-14 10:39:59","2014-01-14 10:37  Before lunch",23,1500,"2",520,NA,"2",TRUE,FALSE,"correction trial"
"3311","2014-01-14 10:40:03","2014-01-14 10:37  Before lunch",23,1500,"4",590,21.2125374083766,"4",TRUE,TRUE,""
"349","2014-01-14 10:40:08","2014-01-14 10:37  Before lunch",24,1500,"3",600,30.8714886726713,"3",TRUE,TRUE,""
"357","2014-01-14 10:40:13","2014-01-14 10:37  Before lunch",25,1500,"8",701,17.2353221819023,"8",TRUE,TRUE,""
"366","2014-01-14 10:40:17","2014-01-14 10:37  Before lunch",26,1500,"6",690,4.92489409995807,"6",TRUE,TRUE,""
"376","2014-01-14 10:40:21","2014-01-14 10:37  Before lunch",27,1500,"4",500,63.636166490769,"4",TRUE,TRUE,""
"386","2014-01-14 10:40:28","2014-01-14 10:37  Before lunch",28,1500,"3",590,36.5532247104917,"3",TRUE,TRUE,""
"396","2014-01-14 10:40:33","2014-01-14 10:37  Before lunch",29,1500,"8",590,NA,"7",FALSE,TRUE,""
"405","2014-01-14 10:40:37","2014-01-14 10:37  Before lunch",29,1500,"8",430,NA,"8",TRUE,FALSE,"correction trial"
"4114","2014-01-14 10:40:42","2014-01-14 10:37  Before lunch",29,1500,"8",1021,NA,"7",FALSE,TRUE,""
"4212","2014-01-14 10:40:47","2014-01-14 10:37  Before lunch",29,1500,"8",450,NA,"8",TRUE,FALSE,"correction trial"
"4310","2014-01-14 10:40:51","2014-01-14 10:37  Before lunch",29,1500,"2",711,15.1520189680348,"2",TRUE,TRUE,""
"444","2014-01-14 10:41:00","2014-01-14 10:37  Before lunch",30,1500,"5",580,18.3716693894664,"5",TRUE,TRUE,""
"454","2014-01-14 10:41:04","2014-01-14 10:37  Before lunch",31,1500,"7",640,12.8793245529066,"7",TRUE,TRUE,""
"463","2014-01-14 10:41:09","2014-01-14 10:37  Before lunch",32,1500,"3",680,9.28089172895372,"3",TRUE,TRUE,""
"250","2014-01-14 10:52:09","2014-01-14 10:51 warmup",1,1500,"6",690,42.431640625,"6",TRUE,FALSE,"warmup"
"350","2014-01-14 10:52:14","2014-01-14 10:51 warmup",2,1500,"8",620,87.841796875,"8",TRUE,FALSE,"warmup"
"440","2014-01-14 10:52:19","2014-01-14 10:51 warmup",3,1500,"7",630,87.841796875,"7",TRUE,FALSE,"warmup"
"526","2014-01-14 10:52:23","2014-01-14 10:51 warmup",4,1500,"2",620,89.35546875,"2",TRUE,FALSE,"warmup"
"626","2014-01-14 10:52:28","2014-01-14 10:51 warmup",5,1500,"8",711,66.650390625,"8",TRUE,FALSE,"warmup"
"726","2014-01-14 10:52:33","2014-01-14 10:51 warmup",6,1500,"6",731,NA,"7",FALSE,FALSE,"warmup"
"815","2014-01-14 10:52:37","2014-01-14 10:51 warmup",6,1500,"6",440,NA,"6",TRUE,FALSE,"correction trial"
"915","2014-01-14 10:52:41","2014-01-14 10:51 warmup",6,1500,"8",630,86.328125,"8",TRUE,FALSE,"warmup"
"258","2014-01-14 14:53:11","2014-01-14 14:53 warmup",1,1500,"6",1161,4.58984375,"6",TRUE,FALSE,"warmup"
"358","2014-01-14 14:53:40","2014-01-14 14:53 warmup",2,1500,"6",570,80.2734375,"6",TRUE,FALSE,"warmup"
"445","2014-01-14 14:53:44","2014-01-14 14:53 warmup",3,1500,"8",570,92.3828125,"8",TRUE,FALSE,"warmup"
"527","2014-01-14 14:53:49","2014-01-14 14:53 warmup",4,1500,"7",550,NA,"6",FALSE,FALSE,"warmup"
"627","2014-01-14 14:53:53","2014-01-14 14:53 warmup",4,1500,"7",410,NA,"7",TRUE,FALSE,"correction trial"
"727","2014-01-14 14:53:58","2014-01-14 14:53 warmup",4,1500,"5",630,19.7265625,"5",TRUE,FALSE,"warmup"
"816","2014-01-14 14:54:02","2014-01-14 14:53 warmup",5,1500,"5",500,66.650390625,"5",TRUE,FALSE,"warmup"
"916","2014-01-14 14:54:06","2014-01-14 14:53 warmup",6,1500,"7",640,83.30078125,"7",TRUE,FALSE,"warmup"
"259","2014-01-14 14:56:15","2014-01-14 14:55  After lunch",1,1500,"3",610,28.2200118550218,"3",TRUE,TRUE,""
"359","2014-01-14 14:56:20","2014-01-14 14:55  After lunch",2,1500,"2",560,73.4845089563244,"2",TRUE,TRUE,""
"446","2014-01-14 14:56:24","2014-01-14 14:55  After lunch",3,1500,"3",650,17.8034957856843,"3",TRUE,TRUE,""
"528","2014-01-14 14:56:29","2014-01-14 14:55  After lunch",4,1500,"6",791,NA,"7",FALSE,TRUE,""
"628","2014-01-14 14:56:35","2014-01-14 14:55  After lunch",4,1500,"6",390,NA,"6",TRUE,FALSE,"correction trial"
"728","2014-01-14 14:56:39","2014-01-14 14:55  After lunch",4,1500,"7",540,63.2573840882476,"7",TRUE,TRUE,""
"817","2014-01-14 14:56:44","2014-01-14 14:55  After lunch",5,1500,"6",620,NA,"7",FALSE,TRUE,""
"917","2014-01-14 14:56:48","2014-01-14 14:55  After lunch",5,1500,"6",410,NA,"6",TRUE,FALSE,"correction trial"
"1015","2014-01-14 14:56:53","2014-01-14 14:55  After lunch",5,1500,"5",510,50.9469560063034,"5",TRUE,TRUE,""
"1115","2014-01-14 14:56:57","2014-01-14 14:55  After lunch",6,1500,"5",470,79.9238097991875,"5",TRUE,TRUE,""
"1212","2014-01-14 14:57:01","2014-01-14 14:55  After lunch",7,1500,"3",530,71.7799881449782,"3",TRUE,TRUE,""
"1312","2014-01-14 14:57:05","2014-01-14 14:55  After lunch",8,1500,"6",620,14.7732365655135,"6",TRUE,TRUE,""
"1412","2014-01-14 14:57:09","2014-01-14 14:55  After lunch",9,1500,"6",460,84.0904162269225,"6",TRUE,TRUE,""
"159","2014-01-14 14:57:14","2014-01-14 14:55  After lunch",10,1500,"7",520,70.8330321386748,"7",TRUE,TRUE,""
"169","2014-01-14 14:57:19","2014-01-14 14:55  After lunch",11,1500,"2",540,NA,"3",FALSE,TRUE,""
"178","2014-01-14 14:57:23","2014-01-14 14:55  After lunch",11,1500,"2",320,NA,"3",FALSE,FALSE,"correction trial"
"188","2014-01-14 14:57:27","2014-01-14 14:55  After lunch",11,1500,"2",310,NA,"2",TRUE,FALSE,"correction trial"
"198","2014-01-14 14:57:32","2014-01-14 14:55  After lunch",11,1500,"3",630,23.2958406222441,"3",TRUE,TRUE,""
"208","2014-01-14 14:57:37","2014-01-14 14:55  After lunch",12,1500,"7",680,5.30367650247944,"7",TRUE,TRUE,""
"2116","2014-01-14 14:57:41","2014-01-14 14:55  After lunch",13,1500,"7",590,28.0306206537611,"7",TRUE,TRUE,""
"2215","2014-01-14 14:57:46","2014-01-14 14:55  After lunch",14,1500,"3",680,9.28089172895372,"3",TRUE,TRUE,""
"2312","2014-01-14 14:57:50","2014-01-14 14:55  After lunch",15,1500,"8",580,NA,"7",FALSE,TRUE,""
"2410","2014-01-14 14:57:55","2014-01-14 14:55  After lunch",15,1500,"8",580,NA,"8",TRUE,FALSE,"correction trial"
"2510","2014-01-14 14:57:59","2014-01-14 14:55  After lunch",15,1500,"2",530,82.7646778180977,"2",TRUE,TRUE,""
"268","2014-01-14 14:58:03","2014-01-14 14:55  After lunch",16,1500,"5",540,43.9394815596582,"5",TRUE,TRUE,""
"278","2014-01-14 14:58:08","2014-01-14 14:55  After lunch",17,1500,"6",510,NA,"7",FALSE,TRUE,""
"288","2014-01-14 14:58:12","2014-01-14 14:55  After lunch",17,1500,"6",460,NA,"6",TRUE,FALSE,"correction trial"
"298","2014-01-14 14:58:17","2014-01-14 14:55  After lunch",17,1500,"3",560,58.3332128554699,"3",TRUE,TRUE,""
"308","2014-01-14 14:58:21","2014-01-14 14:55  After lunch",18,1500,"2",610,NA,"3",FALSE,TRUE,""
"3116","2014-01-14 14:58:25","2014-01-14 14:55  After lunch",18,1500,"2",400,NA,"3",FALSE,FALSE,"correction trial"
"3215","2014-01-14 14:58:30","2014-01-14 14:55  After lunch",18,1500,"2",450,NA,"2",TRUE,FALSE,"correction trial"
"3312","2014-01-14 14:58:35","2014-01-14 14:55  After lunch",18,1500,"6",600,19.3186253957698,"6",TRUE,TRUE,""
"3410","2014-01-14 14:58:40","2014-01-14 14:55  After lunch",19,1500,"7",520,70.8330321386748,"7",TRUE,TRUE,""
"3510","2014-01-14 14:58:44","2014-01-14 14:55  After lunch",20,1500,"2",550,78.0298977865807,"2",TRUE,TRUE,""
"367","2014-01-14 14:58:49","2014-01-14 14:55  After lunch",21,1500,"4",610,NA,"5",FALSE,TRUE,""
"377","2014-01-14 14:58:53","2014-01-14 14:55  After lunch",21,1500,"4",340,NA,"4",TRUE,FALSE,"correction trial"
"387","2014-01-14 14:58:57","2014-01-14 14:55  After lunch",21,1500,"8",550,69.3179025285894,"8",TRUE,TRUE,""
"397","2014-01-14 14:59:02","2014-01-14 14:55  After lunch",22,1500,"4",560,NA,"3",FALSE,TRUE,""
"406","2014-01-14 14:59:06","2014-01-14 14:55  After lunch",22,1500,"4",320,NA,"4",TRUE,FALSE,"correction trial"
"4115","2014-01-14 14:59:10","2014-01-14 14:55  After lunch",22,1500,"7",540,63.2573840882476,"7",TRUE,TRUE,""
"4213","2014-01-14 14:59:14","2014-01-14 14:55  After lunch",23,1500,"8",500,90.5297170697856,"8",TRUE,TRUE,""
"4311","2014-01-14 14:59:19","2014-01-14 14:55  After lunch",24,1500,"3",490,85.0373722332259,"3",TRUE,TRUE,""
"447","2014-01-14 14:59:23","2014-01-14 14:55  After lunch",25,1500,"5",510,50.9469560063034,"5",TRUE,TRUE,""
"455","2014-01-14 14:59:27","2014-01-14 14:55  After lunch",26,1500,"2",500,NA,"3",FALSE,TRUE,""
"464","2014-01-14 14:59:33","2014-01-14 14:55  After lunch",26,1500,"2",440,NA,"2",TRUE,FALSE,"correction trial"
"473","2014-01-14 14:59:37","2014-01-14 14:55  After lunch",26,1500,"2",500,88.2570226546574,"2",TRUE,TRUE,""
"483","2014-01-14 14:59:41","2014-01-14 14:55  After lunch",27,1500,"4",490,69.6966849311108,"4",TRUE,TRUE,""
"493","2014-01-14 14:59:45","2014-01-14 14:55  After lunch",28,1500,"7",540,63.2573840882476,"7",TRUE,TRUE,""
"50","2014-01-14 14:59:50","2014-01-14 14:55  After lunch",29,1500,"3",510,78.0298977865807,"3",TRUE,TRUE,""
"5110","2014-01-14 14:59:54","2014-01-14 14:55  After lunch",30,1500,"2",480,NA,"3",FALSE,TRUE,""
"529","2014-01-14 14:59:59","2014-01-14 14:55  After lunch",30,1500,"2",400,NA,"3",FALSE,FALSE,"correction trial"
"531","2014-01-14 15:00:03","2014-01-14 14:55  After lunch",30,1500,"2",410,NA,"2",TRUE,FALSE,"correction trial"
"541","2014-01-14 15:00:07","2014-01-14 14:55  After lunch",30,1500,"7",520,NA,"8",FALSE,TRUE,""
"551","2014-01-14 15:00:11","2014-01-14 14:55  After lunch",30,1500,"7",340,NA,"7",TRUE,FALSE,"correction trial"
"561","2014-01-14 15:00:16","2014-01-14 14:55  After lunch",30,1500,"7",580,33.5229654903208,"7",TRUE,TRUE,""
"571","2014-01-14 15:00:20","2014-01-14 14:55  After lunch",31,1500,"4",520,56.2499096416024,"4",TRUE,TRUE,""
"581","2014-01-14 15:00:24","2014-01-14 14:55  After lunch",32,1500,"2",590,NA,"3",FALSE,TRUE,""
"591","2014-01-14 15:00:29","2014-01-14 14:55  After lunch",32,1500,"2",390,NA,"3",FALSE,FALSE,"correction trial"
"60","2014-01-14 15:00:33","2014-01-14 14:55  After lunch",32,1500,"2",320,NA,"3",FALSE,FALSE,"correction trial"
"6110","2014-01-14 15:00:37","2014-01-14 14:55  After lunch",32,1500,"2",450,NA,"2",TRUE,FALSE,"correction trial"
"629","2014-01-14 15:00:43","2014-01-14 14:55  After lunch",32,1500,"3",630,NA,"4",FALSE,TRUE,""
"631","2014-01-14 15:00:47","2014-01-14 14:55  After lunch",32,1500,"3",430,NA,"3",TRUE,FALSE,"correction trial"
"641","2014-01-14 15:00:52","2014-01-14 14:55  After lunch",32,1500,"5",540,43.9394815596582,"5",TRUE,TRUE,""
"260","2014-01-15 14:18:12","2014-01-15 14:17 warmup",1,1500,"3",921,1.47058823529412,"3",TRUE,FALSE,"warmup"
"360","2014-01-15 14:18:16","2014-01-15 14:17 warmup",2,1500,"8",711,NA,"7",FALSE,FALSE,"warmup"
"448","2014-01-15 14:18:20","2014-01-15 14:17 warmup",2,1500,"8",550,NA,"8",TRUE,FALSE,"correction trial"
"530","2014-01-15 14:18:25","2014-01-15 14:17 warmup",2,1500,"6",670,40.0086505190311,"6",TRUE,FALSE,"warmup"
"630","2014-01-15 14:18:29","2014-01-15 14:17 warmup",3,1500,"6",570,NA,"5",FALSE,FALSE,"warmup"
"729","2014-01-15 14:18:33","2014-01-15 14:17 warmup",3,1500,"6",350,NA,"6",TRUE,FALSE,"correction trial"
"818","2014-01-15 14:18:37","2014-01-15 14:17 warmup",3,1500,"3",600,69.9826989619377,"3",TRUE,FALSE,"warmup"
"918","2014-01-15 14:18:42","2014-01-15 14:17 warmup",4,1500,"4",510,85.6833910034602,"4",TRUE,FALSE,"warmup"
"1016","2014-01-15 14:18:46","2014-01-15 14:17 warmup",5,1500,"4",640,55.7093425605536,"4",TRUE,FALSE,"warmup"
"1116","2014-01-15 14:18:51","2014-01-15 14:17 warmup",6,1500,"8",941,NA,"7",FALSE,FALSE,"warmup"
"1213","2014-01-15 14:18:56","2014-01-15 14:17 warmup",6,1500,"8",410,NA,"8",TRUE,FALSE,"correction trial"
"1313","2014-01-15 14:19:00","2014-01-15 14:17 warmup",6,1500,"6",650,44.2906574394464,"6",TRUE,FALSE,"warmup"
"269","2014-01-15 14:19:53","2014-01-15 14:19  Little sleep deprived. After lunch. ",1,1500,"8",741,13.258106955428,"8",TRUE,TRUE,""
"368","2014-01-15 14:19:57","2014-01-15 14:19  Little sleep deprived. After lunch. ",2,1500,"3",590,NA,"4",FALSE,TRUE,""
"449","2014-01-15 14:20:01","2014-01-15 14:19  Little sleep deprived. After lunch. ",2,1500,"3",350,NA,"4",FALSE,FALSE,"correction trial"
"532","2014-01-15 14:20:06","2014-01-15 14:19  Little sleep deprived. After lunch. ",2,1500,"3",480,NA,"3",TRUE,FALSE,"correction trial"
"632","2014-01-15 14:20:10","2014-01-15 14:19  Little sleep deprived. After lunch. ",2,1500,"8",540,72.9163353525423,"8",TRUE,TRUE,""
"730","2014-01-15 14:20:14","2014-01-15 14:19  Little sleep deprived. After lunch. ",3,1500,"8",550,69.3179025285894,"8",TRUE,TRUE,""
"819","2014-01-15 14:20:19","2014-01-15 14:19  Little sleep deprived. After lunch. ",4,1500,"2",610,NA,"3",FALSE,TRUE,""
"919","2014-01-15 14:20:23","2014-01-15 14:19  Little sleep deprived. After lunch. ",4,1500,"2",450,NA,"3",FALSE,FALSE,"correction trial"
"1017","2014-01-15 14:20:27","2014-01-15 14:19  Little sleep deprived. After lunch. ",4,1500,"2",410,NA,"2",TRUE,FALSE,"correction trial"
"1117","2014-01-15 14:20:32","2014-01-15 14:19  Little sleep deprived. After lunch. ",4,1500,"6",660,7.5763709176076,"6",TRUE,TRUE,""
"1214","2014-01-15 14:20:37","2014-01-15 14:19  Little sleep deprived. After lunch. ",5,1500,"3",590,36.5532247104917,"3",TRUE,TRUE,""
"1314","2014-01-15 14:20:41","2014-01-15 14:19  Little sleep deprived. After lunch. ",6,1500,"2",550,NA,"3",FALSE,TRUE,""
"1413","2014-01-15 14:20:45","2014-01-15 14:19  Little sleep deprived. After lunch. ",6,1500,"2",540,NA,"2",TRUE,FALSE,"correction trial"
"1510","2014-01-15 14:20:50","2014-01-15 14:19  Little sleep deprived. After lunch. ",6,1500,"4",620,14.7732365655135,"4",TRUE,TRUE,""
"1610","2014-01-15 14:20:54","2014-01-15 14:19  Little sleep deprived. After lunch. ",7,1500,"2",630,37.6895719180558,"2",TRUE,TRUE,""
"179","2014-01-15 14:20:59","2014-01-15 14:19  Little sleep deprived. After lunch. ",8,1500,"3",560,58.3332128554699,"3",TRUE,TRUE,""
"189","2014-01-15 14:21:03","2014-01-15 14:19  Little sleep deprived. After lunch. ",9,1500,"7",540,63.2573840882476,"7",TRUE,TRUE,""
"199","2014-01-15 14:21:08","2014-01-15 14:19  Little sleep deprived. After lunch. ",10,1500,"3",580,42.9925255533548,"3",TRUE,TRUE,""
"209","2014-01-15 14:21:13","2014-01-15 14:19  Little sleep deprived. After lunch. ",11,1500,"6",580,25.1897526348509,"6",TRUE,TRUE,""
"2117","2014-01-15 14:21:17","2014-01-15 14:19  Little sleep deprived. After lunch. ",12,1500,"5",570,23.8640142260261,"5",TRUE,TRUE,""
"2216","2014-01-15 14:21:22","2014-01-15 14:19  Little sleep deprived. After lunch. ",13,1500,"2",640,NA,"3",FALSE,TRUE,""
"2313","2014-01-15 14:21:26","2014-01-15 14:19  Little sleep deprived. After lunch. ",13,1500,"2",350,NA,"3",FALSE,FALSE,"correction trial"
"2411","2014-01-15 14:21:31","2014-01-15 14:19  Little sleep deprived. After lunch. ",13,1500,"2",440,NA,"2",TRUE,FALSE,"correction trial"
"2511","2014-01-15 14:21:35","2014-01-15 14:19  Little sleep deprived. After lunch. ",13,1500,"3",550,67.6133817172433,"3",TRUE,TRUE,""
"2610","2014-01-15 14:21:40","2014-01-15 14:19  Little sleep deprived. After lunch. ",14,1500,"8",590,46.2121759747864,"8",TRUE,TRUE,""
"279","2014-01-15 14:21:44","2014-01-15 14:19  Little sleep deprived. After lunch. ",15,1500,"7",550,56.6286920441238,"7",TRUE,TRUE,""
"289","2014-01-15 14:21:49","2014-01-15 14:19  Little sleep deprived. After lunch. ",16,1500,"7",605,NA,"8",FALSE,TRUE,""
"299","2014-01-15 14:21:54","2014-01-15 14:19  Little sleep deprived. After lunch. ",16,1500,"7",517,NA,"7",TRUE,FALSE,"correction trial"
"309","2014-01-15 14:21:58","2014-01-15 14:19  Little sleep deprived. After lunch. ",16,1500,"3",475,90.3403258685249,"3",TRUE,TRUE,""
"3117","2014-01-15 14:22:03","2014-01-15 14:19  Little sleep deprived. After lunch. ",17,1500,"4",495,66.4770345096792,"4",TRUE,TRUE,""
"3216","2014-01-15 14:22:07","2014-01-15 14:19  Little sleep deprived. After lunch. ",18,1500,"7",584,31.060879873932,"7",TRUE,TRUE,""
"3313","2014-01-15 14:22:11","2014-01-15 14:19  Little sleep deprived. After lunch. ",19,1500,"5",517,49.0530439936966,"5",TRUE,TRUE,""
"3411","2014-01-15 14:22:15","2014-01-15 14:19  Little sleep deprived. After lunch. ",20,1500,"5",455,87.6888490508754,"5",TRUE,TRUE,""
"3511","2014-01-15 14:22:20","2014-01-15 14:19  Little sleep deprived. After lunch. ",21,1500,"2",549,NA,"3",FALSE,TRUE,""
"369","2014-01-15 14:22:24","2014-01-15 14:19  Little sleep deprived. After lunch. ",21,1500,"2",412,NA,"2",TRUE,FALSE,"correction trial"
"378","2014-01-15 14:22:28","2014-01-15 14:19  Little sleep deprived. After lunch. ",21,1500,"6",561,34.2805302953635,"6",TRUE,TRUE,""
"388","2014-01-15 14:22:33","2014-01-15 14:19  Little sleep deprived. After lunch. ",22,1500,"3",583,39.7728751319233,"3",TRUE,TRUE,""
"398","2014-01-15 14:22:38","2014-01-15 14:19  Little sleep deprived. After lunch. ",23,1500,"3",573,NA,"4",FALSE,TRUE,""
"407","2014-01-15 14:22:42","2014-01-15 14:19  Little sleep deprived. After lunch. ",23,1500,"3",417,NA,"3",TRUE,FALSE,"correction trial"
"4116","2014-01-15 14:22:46","2014-01-15 14:19  Little sleep deprived. After lunch. ",23,1500,"5",466,82.3858954155763,"5",TRUE,TRUE,""
"4214","2014-01-15 14:22:50","2014-01-15 14:19  Little sleep deprived. After lunch. ",24,1500,"7",570,39.7728751319233,"7",TRUE,TRUE,""
"4312","2014-01-15 14:22:55","2014-01-15 14:19  Little sleep deprived. After lunch. ",25,1500,"8",560,62.8786016857263,"8",TRUE,TRUE,""
"4410","2014-01-15 14:22:59","2014-01-15 14:19  Little sleep deprived. After lunch. ",26,1500,"4",470,80.4919834029696,"4",TRUE,TRUE,""
"456","2014-01-15 14:23:03","2014-01-15 14:19  Little sleep deprived. After lunch. ",27,1500,"4",390,NA,"3",FALSE,TRUE,""
"465","2014-01-15 14:23:07","2014-01-15 14:19  Little sleep deprived. After lunch. ",27,1500,"4",220,NA,"4",TRUE,FALSE,"correction trial"
"474","2014-01-15 14:23:12","2014-01-15 14:19  Little sleep deprived. After lunch. ",27,1500,"3",680,NA,"4",FALSE,TRUE,""
"484","2014-01-15 14:23:16","2014-01-15 14:19  Little sleep deprived. After lunch. ",27,1500,"3",450,NA,"4",FALSE,FALSE,"correction trial"
"494","2014-01-15 14:23:20","2014-01-15 14:19  Little sleep deprived. After lunch. ",27,1500,"3",300,NA,"3",TRUE,FALSE,"correction trial"
"501","2014-01-15 14:23:25","2014-01-15 14:19  Little sleep deprived. After lunch. ",27,1500,"6",620,14.7732365655135,"6",TRUE,TRUE,""
"5111","2014-01-15 14:23:29","2014-01-15 14:19  Little sleep deprived. After lunch. ",28,1500,"2",530,NA,"3",FALSE,TRUE,""
"5210","2014-01-15 14:23:33","2014-01-15 14:19  Little sleep deprived. After lunch. ",28,1500,"2",230,NA,"3",FALSE,FALSE,"correction trial"
"533","2014-01-15 14:23:37","2014-01-15 14:19  Little sleep deprived. After lunch. ",28,1500,"2",320,NA,"2",TRUE,FALSE,"correction trial"
"542","2014-01-15 14:23:42","2014-01-15 14:19  Little sleep deprived. After lunch. ",28,1500,"4",550,46.9697407798291,"4",TRUE,TRUE,""
"552","2014-01-15 14:23:46","2014-01-15 14:19  Little sleep deprived. After lunch. ",29,1500,"7",721,2.65219968482991,"7",TRUE,TRUE,""
"562","2014-01-15 14:23:51","2014-01-15 14:19  Little sleep deprived. After lunch. ",30,1500,"4",460,85.4161546357472,"4",TRUE,TRUE,""
"572","2014-01-15 14:23:55","2014-01-15 14:19  Little sleep deprived. After lunch. ",31,1500,"6",520,48.4848703899146,"6",TRUE,TRUE,""
"582","2014-01-15 14:24:00","2014-01-15 14:19  Little sleep deprived. After lunch. ",32,1500,"8",500,NA,"7",FALSE,TRUE,""
"592","2014-01-15 14:24:04","2014-01-15 14:19  Little sleep deprived. After lunch. ",32,1500,"8",490,NA,"8",TRUE,FALSE,"correction trial"
"601","2014-01-15 14:24:08","2014-01-15 14:19  Little sleep deprived. After lunch. ",32,1500,"6",510,50.9469560063034,"6",TRUE,TRUE,""
"270","2014-01-15 16:42:46","2014-01-15 16:41 0 sleep deprived. Late afternoon.",1,1500,"4",662,6.6294149113042,"4",TRUE,TRUE,""
"370","2014-01-15 16:42:51","2014-01-15 16:41 0 sleep deprived. Late afternoon.",2,1500,"2",810,NA,"3",FALSE,TRUE,""
"450","2014-01-15 16:42:57","2014-01-15 16:41 0 sleep deprived. Late afternoon.",2,1500,"2",740,NA,"2",TRUE,FALSE,"correction trial"
"534","2014-01-15 16:43:03","2014-01-15 16:41 0 sleep deprived. Late afternoon.",2,1500,"8",738,NA,"7",FALSE,TRUE,""
"633","2014-01-15 16:43:08","2014-01-15 16:41 0 sleep deprived. Late afternoon.",2,1500,"8",607,NA,"8",TRUE,FALSE,"correction trial"
"731","2014-01-15 16:43:14","2014-01-15 16:41 0 sleep deprived. Late afternoon.",2,1500,"7",698,4.54611169743671,"7",TRUE,TRUE,""
"820","2014-01-15 16:43:20","2014-01-15 16:41 0 sleep deprived. Late afternoon.",3,1500,"6",867,0.947678873483786,"6",TRUE,TRUE,""
"920","2014-01-15 16:43:27","2014-01-15 16:41 0 sleep deprived. Late afternoon.",4,1500,"8",824,5.30367650247944,"8",TRUE,TRUE,""
"1018","2014-01-15 16:43:33","2014-01-15 16:41 0 sleep deprived. Late afternoon.",5,1500,"2",729,13.0687157541673,"2",TRUE,TRUE,""
"1118","2014-01-15 16:43:39","2014-01-15 16:41 0 sleep deprived. Late afternoon.",6,1500,"5",691,3.97793809365467,"5",TRUE,TRUE,""
"1215","2014-01-15 16:43:44","2014-01-15 16:41 0 sleep deprived. Late afternoon.",7,1500,"3",737,NA,"4",FALSE,TRUE,""
"1315","2014-01-15 16:43:49","2014-01-15 16:41 0 sleep deprived. Late afternoon.",7,1500,"3",414,NA,"3",TRUE,FALSE,"correction trial"
"1414","2014-01-15 16:43:54","2014-01-15 16:41 0 sleep deprived. Late afternoon.",7,1500,"3",601,29.3563590625858,"3",TRUE,TRUE,""
"1511","2014-01-15 16:43:59","2014-01-15 16:41 0 sleep deprived. Late afternoon.",8,1500,"2",559,76.3253769752346,"2",TRUE,TRUE,""
"1611","2014-01-15 16:44:04","2014-01-15 16:41 0 sleep deprived. Late afternoon.",9,1500,"4",547,48.8636527924359,"4",TRUE,TRUE,""
"1710","2014-01-15 16:44:08","2014-01-15 16:41 0 sleep deprived. Late afternoon.",10,1500,"7",513,72.7269441512816,"7",TRUE,TRUE,""
"1810","2014-01-15 16:44:13","2014-01-15 16:41 0 sleep deprived. Late afternoon.",11,1500,"6",559,37.8789631193165,"6",TRUE,TRUE,""
"1910","2014-01-15 16:44:16","2014-01-15 16:41 0 sleep deprived. Late afternoon.",12,1500,"3",520,74.4314649626278,"3",TRUE,TRUE,""
"2010","2014-01-15 16:44:20","2014-01-15 16:41 0 sleep deprived. Late afternoon.",13,1500,"8",512,84.2798074281831,"8",TRUE,TRUE,""
"2118","2014-01-15 16:44:24","2014-01-15 16:41 0 sleep deprived. Late afternoon.",14,1500,"3",423,NA,"4",FALSE,TRUE,""
"2217","2014-01-15 16:44:28","2014-01-15 16:41 0 sleep deprived. Late afternoon.",14,1500,"3",483,NA,"4",FALSE,FALSE,"correction trial"
"2314","2014-01-15 16:44:31","2014-01-15 16:41 0 sleep deprived. Late afternoon.",14,1500,"3",346,NA,"3",TRUE,FALSE,"correction trial"
"2412","2014-01-15 16:44:34","2014-01-15 16:41 0 sleep deprived. Late afternoon.",14,1500,"2",374,98.4841475227342,"2",TRUE,TRUE,""
"2512","2014-01-15 16:44:37","2014-01-15 16:41 0 sleep deprived. Late afternoon.",15,1500,"8",411,97.5371915164308,"8",TRUE,TRUE,""
"2611","2014-01-15 16:44:40","2014-01-15 16:41 0 sleep deprived. Late afternoon.",16,1500,"7",396,97.3478003151701,"7",TRUE,TRUE,""
"2710","2014-01-15 16:44:44","2014-01-15 16:41 0 sleep deprived. Late afternoon.",17,1500,"5",485,70.0754673336321,"5",TRUE,TRUE,""
"2810","2014-01-15 16:44:47","2014-01-15 16:41 0 sleep deprived. Late afternoon.",18,1500,"7",469,NA,"8",FALSE,TRUE,""
"2910","2014-01-15 16:44:51","2014-01-15 16:41 0 sleep deprived. Late afternoon.",18,1500,"7",370,NA,"7",TRUE,FALSE,"correction trial"
"3010","2014-01-15 16:44:55","2014-01-15 16:41 0 sleep deprived. Late afternoon.",18,1500,"3",443,95.643279503824,"3",TRUE,TRUE,""
"3118","2014-01-15 16:44:59","2014-01-15 16:41 0 sleep deprived. Late afternoon.",19,1500,"2",497,89.5827610634822,"2",TRUE,TRUE,""
"3217","2014-01-15 16:45:03","2014-01-15 16:41 0 sleep deprived. Late afternoon.",20,1500,"6",547,40.9092223394873,"6",TRUE,TRUE,""
"3314","2014-01-15 16:45:07","2014-01-15 16:41 0 sleep deprived. Late afternoon.",21,1500,"3",527,NA,"4",FALSE,TRUE,""
"3412","2014-01-15 16:45:12","2014-01-15 16:41 0 sleep deprived. Late afternoon.",21,1500,"3",427,NA,"3",TRUE,FALSE,"correction trial"
"3512","2014-01-15 16:45:17","2014-01-15 16:41 0 sleep deprived. Late afternoon.",21,1500,"4",733,2.46280848356923,"4",TRUE,TRUE,""
"3610","2014-01-15 16:45:22","2014-01-15 16:41 0 sleep deprived. Late afternoon.",22,1500,"8",650,29.9245326663679,"8",TRUE,TRUE,""
"379","2014-01-15 16:45:28","2014-01-15 16:41 0 sleep deprived. Late afternoon.",23,1500,"5",650,8.71271812517168,"5",TRUE,TRUE,""
"389","2014-01-15 16:45:34","2014-01-15 16:41 0 sleep deprived. Late afternoon.",24,1500,"5",753,1.51585247726583,"5",TRUE,TRUE,""
"399","2014-01-15 16:45:40","2014-01-15 16:41 0 sleep deprived. Late afternoon.",25,1500,"3",768,3.03098208735127,"3",TRUE,TRUE,""
"408","2014-01-15 16:45:46","2014-01-15 16:41 0 sleep deprived. Late afternoon.",26,1500,"5",742,1.89463487978719,"5",TRUE,TRUE,""
"4117","2014-01-15 16:45:52","2014-01-15 16:41 0 sleep deprived. Late afternoon.",27,1500,"4",758,2.08402608104787,"4",TRUE,TRUE,""
"4215","2014-01-15 16:45:59","2014-01-15 16:41 0 sleep deprived. Late afternoon.",28,1500,"8",743,NA,"7",FALSE,TRUE,""
"4313","2014-01-15 16:46:05","2014-01-15 16:41 0 sleep deprived. Late afternoon.",28,1500,"8",551,NA,"8",TRUE,FALSE,"correction trial"
"4411","2014-01-15 16:46:10","2014-01-15 16:41 0 sleep deprived. Late afternoon.",28,1500,"6",669,7.38697971634692,"6",TRUE,TRUE,""
"457","2014-01-15 16:46:16","2014-01-15 16:41 0 sleep deprived. Late afternoon.",29,1500,"2",862,2.65219968482991,"2",TRUE,TRUE,""
"466","2014-01-15 16:46:22","2014-01-15 16:41 0 sleep deprived. Late afternoon.",30,1500,"3",696,NA,"4",FALSE,TRUE,""
"475","2014-01-15 16:46:27","2014-01-15 16:41 0 sleep deprived. Late afternoon.",30,1500,"3",712,NA,"3",TRUE,FALSE,"correction trial"
"485","2014-01-15 16:46:32","2014-01-15 16:41 0 sleep deprived. Late afternoon.",30,1500,"3",722,5.49306770374012,"3",TRUE,TRUE,""
"495","2014-01-15 16:46:47","2014-01-15 16:41 0 sleep deprived. Late afternoon.",31,1500,"4",516,57.3862568491665,"4",TRUE,TRUE,""
"502","2014-01-15 16:46:51","2014-01-15 16:41 0 sleep deprived. Late afternoon.",32,1500,"2",611,41.6667871445301,"2",TRUE,TRUE,""
"280","2014-01-16 09:54:20","2014-01-16 09:54 warmup",1,1500,"2",690,NA,"3",FALSE,FALSE,"warmup"
"380","2014-01-16 09:54:25","2014-01-16 09:54 warmup",1,1500,"2",440,NA,"2",TRUE,FALSE,"correction trial"
"458","2014-01-16 09:54:30","2014-01-16 09:54 warmup",1,1500,"3",630,NA,"4",FALSE,FALSE,"warmup"
"535","2014-01-16 09:54:35","2014-01-16 09:54 warmup",1,1500,"3",418,NA,"3",TRUE,FALSE,"correction trial"
"634","2014-01-16 09:54:51","2014-01-16 09:54 warmup",1,1500,"5",584,26.1492698756084,"5",TRUE,FALSE,"warmup"
"732","2014-01-16 09:54:55","2014-01-16 09:54 warmup",2,1500,"2",633,NA,"3",FALSE,FALSE,"warmup"
"821","2014-01-16 09:54:59","2014-01-16 09:54 warmup",2,1500,"2",410,NA,"3",FALSE,FALSE,"correction trial"
"921","2014-01-16 09:55:04","2014-01-16 09:54 warmup",2,1500,"2",500,NA,"2",TRUE,FALSE,"correction trial"
"1019","2014-01-16 09:55:08","2014-01-16 09:54 warmup",2,1500,"6",588,64.7647376960519,"6",TRUE,FALSE,"warmup"
"1119","2014-01-16 09:55:13","2014-01-16 09:54 warmup",3,1500,"2",690,53.4072471606274,"2",TRUE,FALSE,"warmup"
"1216","2014-01-16 09:55:19","2014-01-16 09:54 warmup",4,1500,"7",669,55.6787452677123,"7",TRUE,FALSE,"warmup"
"1316","2014-01-16 09:55:23","2014-01-16 09:54 warmup",5,1500,"4",650,47.7285018929151,"4",TRUE,FALSE,"warmup"
"1415","2014-01-16 09:55:29","2014-01-16 09:54 warmup",6,1500,"5",580,28.4207679826934,"5",TRUE,FALSE,"warmup"
"290","2014-01-16 09:56:01","2014-01-16 09:55  Good sleep. ",1,1500,"4",590,21.2125374083766,"4",TRUE,TRUE,""
"390","2014-01-16 09:56:05","2014-01-16 09:55  Good sleep. ",2,1500,"3",620,25.1897526348509,"3",TRUE,TRUE,""
"459","2014-01-16 09:56:10","2014-01-16 09:55  Good sleep. ",3,1500,"4",530,54.166606427735,"4",TRUE,TRUE,""
"536","2014-01-16 09:56:15","2014-01-16 09:55  Good sleep. ",4,1500,"7",560,49.2424351949573,"7",TRUE,TRUE,""
"635","2014-01-16 09:56:20","2014-01-16 09:55  Good sleep. ",5,1500,"3",590,36.5532247104917,"3",TRUE,TRUE,""
"733","2014-01-16 09:56:25","2014-01-16 09:55  Good sleep. ",6,1500,"8",727,14.0156717604707,"8",TRUE,TRUE,""
"822","2014-01-16 09:56:30","2014-01-16 09:55  Good sleep. ",7,1500,"3",638,21.7807110121586,"3",TRUE,TRUE,""
"922","2014-01-16 09:56:35","2014-01-16 09:55  Good sleep. ",8,1500,"4",545,50.568173603782,"4",TRUE,TRUE,""
"1020","2014-01-16 09:56:39","2014-01-16 09:55  Good sleep. ",9,1500,"2",684,19.8867989995518,"2",TRUE,TRUE,""
"1120","2014-01-16 09:56:44","2014-01-16 09:55  Good sleep. ",10,1500,"3",553,NA,"4",FALSE,TRUE,""
"1217","2014-01-16 09:56:48","2014-01-16 09:55  Good sleep. ",10,1500,"3",553,NA,"3",TRUE,FALSE,"correction trial"
"1317","2014-01-16 09:56:52","2014-01-16 09:55  Good sleep. ",10,1500,"7",544,60.6059072705981,"7",TRUE,TRUE,""
"1416","2014-01-16 09:56:56","2014-01-16 09:55  Good sleep. ",11,1500,"5",500,58.3332128554699,"5",TRUE,TRUE,""
"1512","2014-01-16 09:57:00","2014-01-16 09:55  Good sleep. ",12,1500,"8",637,NA,"7",FALSE,TRUE,""
"1612","2014-01-16 09:57:05","2014-01-16 09:55  Good sleep. ",12,1500,"8",604,NA,"8",TRUE,FALSE,"correction trial"
"1711","2014-01-16 09:57:10","2014-01-16 09:55  Good sleep. ",12,1500,"3",604,29.3563590625858,"3",TRUE,TRUE,""
"1811","2014-01-16 09:57:14","2014-01-16 09:55  Good sleep. ",13,1500,"6",540,44.5076551634403,"6",TRUE,TRUE,""
"1911","2014-01-16 09:57:19","2014-01-16 09:55  Good sleep. ",14,1500,"2",510,NA,"3",FALSE,TRUE,""
"2011","2014-01-16 09:57:23","2014-01-16 09:55  Good sleep. ",14,1500,"2",490,NA,"2",TRUE,FALSE,"correction trial"
"2119","2014-01-16 09:57:28","2014-01-16 09:55  Good sleep. ",14,1500,"7",590,28.0306206537611,"7",TRUE,TRUE,""
"2218","2014-01-16 09:57:33","2014-01-16 09:55  Good sleep. ",15,1500,"6",610,17.0459309806416,"6",TRUE,TRUE,""
"2315","2014-01-16 09:57:37","2014-01-16 09:55  Good sleep. ",16,1500,"3",570,49.2424351949573,"3",TRUE,TRUE,""
"2413","2014-01-16 09:57:42","2014-01-16 09:55  Good sleep. ",17,1500,"8",680,NA,"7",FALSE,TRUE,""
"2513","2014-01-16 09:57:46","2014-01-16 09:55  Good sleep. ",17,1500,"8",530,NA,"8",TRUE,FALSE,"correction trial"
"2612","2014-01-16 09:57:51","2014-01-16 09:55  Good sleep. ",17,1500,"3",550,67.6133817172433,"3",TRUE,TRUE,""
"2711","2014-01-16 09:57:56","2014-01-16 09:55  Good sleep. ",18,1500,"3",580,42.9925255533548,"3",TRUE,TRUE,""
"2811","2014-01-16 09:58:00","2014-01-16 09:55  Good sleep. ",19,1500,"2",560,NA,"3",FALSE,TRUE,""
"2911","2014-01-16 09:58:05","2014-01-16 09:55  Good sleep. ",19,1500,"2",350,NA,"2",TRUE,FALSE,"correction trial"
"3011","2014-01-16 09:58:09","2014-01-16 09:55  Good sleep. ",19,1500,"4",550,46.9697407798291,"4",TRUE,TRUE,""
"3119","2014-01-16 09:58:13","2014-01-16 09:55  Good sleep. ",20,1500,"4",510,59.0907776605127,"4",TRUE,TRUE,""
"3218","2014-01-16 09:58:18","2014-01-16 09:55  Good sleep. ",21,1500,"8",610,39.5834839306626,"8",TRUE,TRUE,""
"3315","2014-01-16 09:58:22","2014-01-16 09:55  Good sleep. ",22,1500,"5",630,10.0384565339964,"5",TRUE,TRUE,""
"3413","2014-01-16 09:58:27","2014-01-16 09:55  Good sleep. ",23,1500,"4",510,59.0907776605127,"4",TRUE,TRUE,""
"3513","2014-01-16 09:58:31","2014-01-16 09:55  Good sleep. ",24,1500,"8",620,37.5001807167951,"8",TRUE,TRUE,""
"3611","2014-01-16 09:58:36","2014-01-16 09:55  Good sleep. ",25,1500,"6",580,NA,"7",FALSE,TRUE,""
"3710","2014-01-16 09:58:40","2014-01-16 09:55  Good sleep. ",25,1500,"6",400,NA,"6",TRUE,FALSE,"correction trial"
"3810","2014-01-16 09:58:44","2014-01-16 09:55  Good sleep. ",25,1500,"3",560,58.3332128554699,"3",TRUE,TRUE,""
"3910","2014-01-16 09:58:48","2014-01-16 09:55  Good sleep. ",26,1500,"8",540,72.9163353525423,"8",TRUE,TRUE,""
"409","2014-01-16 09:58:53","2014-01-16 09:55  Good sleep. ",27,1500,"4",690,4.16732929491535,"4",TRUE,TRUE,""
"4118","2014-01-16 09:58:58","2014-01-16 09:55  Good sleep. ",28,1500,"4",580,26.5154910436756,"4",TRUE,TRUE,""
"4216","2014-01-16 09:59:02","2014-01-16 09:55  Good sleep. ",29,1500,"4",590,21.2125374083766,"4",TRUE,TRUE,""
"4314","2014-01-16 09:59:07","2014-01-16 09:55  Good sleep. ",30,1500,"5",510,50.9469560063034,"5",TRUE,TRUE,""
"4412","2014-01-16 09:59:12","2014-01-16 09:55  Good sleep. ",31,1500,"8",751,10.9854125402998,"8",TRUE,TRUE,""
"4510","2014-01-16 09:59:16","2014-01-16 09:55  Good sleep. ",32,1500,"7",590,28.0306206537611,"7",TRUE,TRUE,""
"2100","2014-01-16 11:05:18","2014-01-16 11:04  Mid morning after good sleep.",1,1500,"4",811,6.26980534178361,"4",TRUE,FALSE,"session ended"
"2101","2014-01-16 11:07:47","2014-01-16 11:07  Mid morning after good sleep. ",1,1500,"6",560,35.9850511067097,"6",TRUE,TRUE,""
"3100","2014-01-16 11:07:51","2014-01-16 11:07  Mid morning after good sleep. ",2,1500,"4",520,56.2499096416024,"4",TRUE,TRUE,""
"460","2014-01-16 11:07:56","2014-01-16 11:07  Mid morning after good sleep. ",3,1500,"6",550,39.9622663331839,"6",TRUE,TRUE,""
"537","2014-01-16 11:08:00","2014-01-16 11:07  Mid morning after good sleep. ",4,1500,"2",490,NA,"3",FALSE,TRUE,""
"636","2014-01-16 11:08:05","2014-01-16 11:07  Mid morning after good sleep. ",4,1500,"2",420,NA,"2",TRUE,FALSE,"correction trial"
"734","2014-01-16 11:08:10","2014-01-16 11:07  Mid morning after good sleep. ",4,1500,"3",610,28.2200118550218,"3",TRUE,TRUE,""
"823","2014-01-16 11:08:14","2014-01-16 11:07  Mid morning after good sleep. ",5,1500,"8",580,50.1893912012607,"8",TRUE,TRUE,""
"923","2014-01-16 11:08:19","2014-01-16 11:07  Mid morning after good sleep. ",6,1500,"7",570,39.7728751319233,"7",TRUE,TRUE,""
"1021","2014-01-16 11:08:23","2014-01-16 11:07  Mid morning after good sleep. ",7,1500,"2",530,82.7646778180977,"2",TRUE,TRUE,""
"1121","2014-01-16 11:08:28","2014-01-16 11:07  Mid morning after good sleep. ",8,1500,"6",630,12.5005421503853,"6",TRUE,TRUE,""
"1218","2014-01-16 11:08:32","2014-01-16 11:07  Mid morning after good sleep. ",9,1500,"5",560,32.3866182827567,"5",TRUE,TRUE,""
"1318","2014-01-16 11:08:37","2014-01-16 11:07  Mid morning after good sleep. ",10,1500,"6",570,30.4927062701499,"6",TRUE,TRUE,""
"1417","2014-01-16 11:08:42","2014-01-16 11:07  Mid morning after good sleep. ",11,1500,"6",570,NA,"7",FALSE,TRUE,""
"1513","2014-01-16 11:08:47","2014-01-16 11:07  Mid morning after good sleep. ",11,1500,"6",400,NA,"6",TRUE,FALSE,"correction trial"
"1613","2014-01-16 11:08:51","2014-01-16 11:07  Mid morning after good sleep. ",11,1500,"6",560,35.9850511067097,"6",TRUE,TRUE,""
"1712","2014-01-16 11:08:56","2014-01-16 11:07  Mid morning after good sleep. ",12,1500,"6",540,44.5076551634403,"6",TRUE,TRUE,""
"1812","2014-01-16 11:09:00","2014-01-16 11:07  Mid morning after good sleep. ",13,1500,"4",570,34.4699214966242,"4",TRUE,TRUE,""
"1912","2014-01-16 11:09:05","2014-01-16 11:07  Mid morning after good sleep. ",14,1500,"5",550,38.8259191256199,"5",TRUE,TRUE,""
"2012","2014-01-16 11:09:10","2014-01-16 11:07  Mid morning after good sleep. ",15,1500,"6",600,NA,"7",FALSE,TRUE,""
"2120","2014-01-16 11:09:14","2014-01-16 11:07  Mid morning after good sleep. ",15,1500,"6",530,NA,"6",TRUE,FALSE,"correction trial"
"2219","2014-01-16 11:09:19","2014-01-16 11:07  Mid morning after good sleep. ",15,1500,"5",520,47.7273055848718,"5",TRUE,TRUE,""
"2316","2014-01-16 11:09:24","2014-01-16 11:07  Mid morning after good sleep. ",16,1500,"8",638,34.0911390941029,"8",TRUE,TRUE,""
"2414","2014-01-16 11:09:29","2014-01-16 11:07  Mid morning after good sleep. ",17,1500,"3",506,79.3556361954055,"3",TRUE,TRUE,""
"2514","2014-01-16 11:09:34","2014-01-16 11:07  Mid morning after good sleep. ",18,1500,"8",535,75.9465945727132,"8",TRUE,TRUE,""
"2613","2014-01-16 11:09:38","2014-01-16 11:07  Mid morning after good sleep. ",19,1500,"8",515,82.9540690193584,"8",TRUE,TRUE,""
"2712","2014-01-16 11:09:43","2014-01-16 11:07  Mid morning after good sleep. ",20,1500,"2",614,41.098613540748,"2",TRUE,TRUE,""
"2812","2014-01-16 11:09:47","2014-01-16 11:07  Mid morning after good sleep. ",21,1500,"4",490,69.6966849311108,"4",TRUE,TRUE,""
"2912","2014-01-16 11:09:51","2014-01-16 11:07  Mid morning after good sleep. ",22,1500,"3",472,90.908499472307,"3",TRUE,TRUE,""
"3012","2014-01-16 11:09:55","2014-01-16 11:07  Mid morning after good sleep. ",23,1500,"6",539,46.2121759747864,"6",TRUE,TRUE,""
"3120","2014-01-16 11:09:59","2014-01-16 11:07  Mid morning after good sleep. ",24,1500,"2",520,NA,"3",FALSE,TRUE,""
"3219","2014-01-16 11:10:04","2014-01-16 11:07  Mid morning after good sleep. ",24,1500,"2",431,NA,"2",TRUE,FALSE,"correction trial"
"3316","2014-01-16 11:10:09","2014-01-16 11:07  Mid morning after good sleep. ",24,1500,"8",593,44.697046364701,"8",TRUE,TRUE,""
"3414","2014-01-16 11:10:14","2014-01-16 11:07  Mid morning after good sleep. ",25,1500,"4",520,NA,"3",FALSE,TRUE,""
"3514","2014-01-16 11:10:18","2014-01-16 11:07  Mid morning after good sleep. ",25,1500,"4",460,NA,"4",TRUE,FALSE,"correction trial"
"3612","2014-01-16 11:10:22","2014-01-16 11:07  Mid morning after good sleep. ",25,1500,"7",530,66.8558169122006,"7",TRUE,TRUE,""
"3711","2014-01-16 11:10:27","2014-01-16 11:07  Mid morning after good sleep. ",26,1500,"7",470,87.8782402521361,"7",TRUE,TRUE,""
"3811","2014-01-16 11:10:32","2014-01-16 11:07  Mid morning after good sleep. ",27,1500,"4",590,NA,"5",FALSE,TRUE,""
"3911","2014-01-16 11:10:36","2014-01-16 11:07  Mid morning after good sleep. ",27,1500,"4",440,NA,"4",TRUE,FALSE,"correction trial"
"4010","2014-01-16 11:10:40","2014-01-16 11:07  Mid morning after good sleep. ",27,1500,"2",570,66.2876433084185,"2",TRUE,TRUE,""
"4119","2014-01-16 11:10:45","2014-01-16 11:07  Mid morning after good sleep. ",28,1500,"5",580,NA,"6",FALSE,TRUE,""
"4217","2014-01-16 11:10:49","2014-01-16 11:07  Mid morning after good sleep. ",28,1500,"5",420,NA,"5",TRUE,FALSE,"correction trial"
"4315","2014-01-16 11:10:54","2014-01-16 11:07  Mid morning after good sleep. ",28,1500,"3",520,74.4314649626278,"3",TRUE,TRUE,""
"4413","2014-01-16 11:10:58","2014-01-16 11:07  Mid morning after good sleep. ",29,1500,"4",430,89.3933698622215,"4",TRUE,TRUE,""
"4511","2014-01-16 11:11:02","2014-01-16 11:07  Mid morning after good sleep. ",30,1500,"4",510,59.0907776605127,"4",TRUE,TRUE,""
"467","2014-01-16 11:11:07","2014-01-16 11:07  Mid morning after good sleep. ",31,1500,"8",570,NA,"7",FALSE,TRUE,""
"476","2014-01-16 11:11:12","2014-01-16 11:07  Mid morning after good sleep. ",31,1500,"8",530,NA,"8",TRUE,FALSE,"correction trial"
"486","2014-01-16 11:11:16","2014-01-16 11:07  Mid morning after good sleep. ",31,1500,"8",540,72.9163353525423,"8",TRUE,TRUE,""
"496","2014-01-16 11:11:21","2014-01-16 11:07  Mid morning after good sleep. ",32,1500,"6",570,30.4927062701499,"6",TRUE,TRUE,""
"2102","2014-01-16 13:11:49","2014-01-16 13:11  Afternoon after lunch. ",1,1500,"4",550,46.9697407798291,"4",TRUE,TRUE,""
"3101","2014-01-16 13:11:55","2014-01-16 13:11  Afternoon after lunch. ",2,1500,"5",572,21.4019286096373,"5",TRUE,TRUE,""
"468","2014-01-16 13:12:01","2014-01-16 13:11  Afternoon after lunch. ",3,1500,"3",693,NA,"4",FALSE,TRUE,""
"538","2014-01-16 13:12:06","2014-01-16 13:11  Afternoon after lunch. ",3,1500,"3",475,NA,"3",TRUE,FALSE,"correction trial"
"637","2014-01-16 13:12:11","2014-01-16 13:11  Afternoon after lunch. ",3,1500,"5",495,63.4467752895083,"5",TRUE,TRUE,""
"735","2014-01-16 13:12:15","2014-01-16 13:11  Afternoon after lunch. ",4,1500,"4",490,69.6966849311108,"4",TRUE,TRUE,""
"824","2014-01-16 13:12:20","2014-01-16 13:11  Afternoon after lunch. ",5,1500,"5",508,53.4090416226922,"5",TRUE,TRUE,""
"924","2014-01-16 13:12:25","2014-01-16 13:11  Afternoon after lunch. ",6,1500,"3",588,38.2577455218378,"3",TRUE,TRUE,""
"1022","2014-01-16 13:12:30","2014-01-16 13:11  Afternoon after lunch. ",7,1500,"8",598,NA,"7",FALSE,TRUE,""
"1122","2014-01-16 13:12:34","2014-01-16 13:11  Afternoon after lunch. ",7,1500,"8",453,NA,"8",TRUE,FALSE,"correction trial"
"1219","2014-01-16 13:12:40","2014-01-16 13:11  Afternoon after lunch. ",7,1500,"7",615,NA,"8",FALSE,TRUE,""
"1319","2014-01-16 13:12:45","2014-01-16 13:11  Afternoon after lunch. ",7,1500,"7",466,NA,"7",TRUE,FALSE,"correction trial"
"1418","2014-01-16 13:12:49","2014-01-16 13:11  Afternoon after lunch. ",7,1500,"8",563,59.2801688617733,"8",TRUE,TRUE,""
"1514","2014-01-16 13:12:54","2014-01-16 13:11  Afternoon after lunch. ",8,1500,"4",550,46.9697407798291,"4",TRUE,TRUE,""
"1614","2014-01-16 13:12:59","2014-01-16 13:11  Afternoon after lunch. ",9,1500,"7",510,73.4845089563244,"7",TRUE,TRUE,""
"1713","2014-01-16 13:13:04","2014-01-16 13:11  Afternoon after lunch. ",10,1500,"5",540,43.9394815596582,"5",TRUE,TRUE,""
"1813","2014-01-16 13:13:09","2014-01-16 13:11  Afternoon after lunch. ",11,1500,"3",540,69.8860761323714,"3",TRUE,TRUE,""
"1913","2014-01-16 13:13:14","2014-01-16 13:11  Afternoon after lunch. ",12,1500,"8",520,81.2495482080123,"8",TRUE,TRUE,""
"2013","2014-01-16 13:13:18","2014-01-16 13:11  Afternoon after lunch. ",13,1500,"8",570,55.3029536352991,"8",TRUE,TRUE,""
"2121","2014-01-16 13:13:23","2014-01-16 13:11  Afternoon after lunch. ",14,1500,"5",540,43.9394815596582,"5",TRUE,TRUE,""
"2220","2014-01-16 13:13:27","2014-01-16 13:11  Afternoon after lunch. ",15,1500,"7",500,76.3253769752346,"7",TRUE,TRUE,""
"2317","2014-01-16 13:13:31","2014-01-16 13:11  Afternoon after lunch. ",16,1500,"8",490,92.9918026861744,"8",TRUE,TRUE,""
"2415","2014-01-16 13:13:36","2014-01-16 13:11  Afternoon after lunch. ",17,1500,"2",594,48.1060879873932,"2",TRUE,TRUE,""
"2515","2014-01-16 13:13:45","2014-01-16 13:11  Afternoon after lunch. ",18,1500,"7",465,88.6358050571788,"7",TRUE,TRUE,""
"2614","2014-01-16 13:13:50","2014-01-16 13:11  Afternoon after lunch. ",19,1500,"6",674,NA,"7",FALSE,TRUE,""
"2713","2014-01-16 13:13:54","2014-01-16 13:11  Afternoon after lunch. ",19,1500,"6",386,NA,"6",TRUE,FALSE,"correction trial"
"2813","2014-01-16 13:13:58","2014-01-16 13:11  Afternoon after lunch. ",19,1500,"4",463,83.5222426231404,"4",TRUE,TRUE,""
"2913","2014-01-16 13:14:02","2014-01-16 13:11  Afternoon after lunch. ",20,1500,"6",410,94.5069322962599,"6",TRUE,TRUE,""
"3013","2014-01-16 13:14:06","2014-01-16 13:11  Afternoon after lunch. ",21,1500,"6",510,50.9469560063034,"6",TRUE,TRUE,""
"3121","2014-01-16 13:14:10","2014-01-16 13:11  Afternoon after lunch. ",22,1500,"6",471,74.8102473651491,"6",TRUE,TRUE,""
"3220","2014-01-16 13:14:15","2014-01-16 13:11  Afternoon after lunch. ",23,1500,"7",550,56.6286920441238,"7",TRUE,TRUE,""
"3317","2014-01-16 13:14:20","2014-01-16 13:11  Afternoon after lunch. ",24,1500,"2",561,NA,"3",FALSE,TRUE,""
"3415","2014-01-16 13:14:24","2014-01-16 13:11  Afternoon after lunch. ",24,1500,"2",291,NA,"2",TRUE,FALSE,"correction trial"
"3515","2014-01-16 13:14:28","2014-01-16 13:11  Afternoon after lunch. ",24,1500,"7",437,NA,"8",FALSE,TRUE,""
"3613","2014-01-16 13:14:32","2014-01-16 13:11  Afternoon after lunch. ",24,1500,"7",320,NA,"8",FALSE,FALSE,"correction trial"
"3712","2014-01-16 13:14:37","2014-01-16 13:11  Afternoon after lunch. ",24,1500,"7",450,NA,"7",TRUE,FALSE,"correction trial"
"3812","2014-01-16 13:14:42","2014-01-16 13:11  Afternoon after lunch. ",24,1500,"4",530,54.166606427735,"4",TRUE,TRUE,""
"3912","2014-01-16 13:14:46","2014-01-16 13:11  Afternoon after lunch. ",25,1500,"8",480,NA,"7",FALSE,TRUE,""
"4011","2014-01-16 13:14:51","2014-01-16 13:11  Afternoon after lunch. ",25,1500,"8",440,NA,"8",TRUE,FALSE,"correction trial"
"4120","2014-01-16 13:14:55","2014-01-16 13:11  Afternoon after lunch. ",25,1500,"3",530,71.7799881449782,"3",TRUE,TRUE,""
"4218","2014-01-16 13:14:59","2014-01-16 13:11  Afternoon after lunch. ",26,1500,"8",520,81.2495482080123,"8",TRUE,TRUE,""
"4316","2014-01-16 13:15:04","2014-01-16 13:11  Afternoon after lunch. ",27,1500,"8",528,79.1662449941448,"8",TRUE,TRUE,""
"4414","2014-01-16 13:15:09","2014-01-16 13:11  Afternoon after lunch. ",28,1500,"2",616,40.3410487357053,"2",TRUE,TRUE,""
"4512","2014-01-16 13:15:14","2014-01-16 13:11  Afternoon after lunch. ",29,1500,"3",627,NA,"4",FALSE,TRUE,""
"469","2014-01-16 13:15:18","2014-01-16 13:11  Afternoon after lunch. ",29,1500,"3",475,NA,"3",TRUE,FALSE,"correction trial"
"477","2014-01-16 13:15:22","2014-01-16 13:11  Afternoon after lunch. ",29,1500,"2",565,70.0754673336321,"2",TRUE,TRUE,""
"487","2014-01-16 13:15:26","2014-01-16 13:11  Afternoon after lunch. ",30,1500,"7",410,96.5902355101274,"7",TRUE,TRUE,""
"497","2014-01-16 13:15:31","2014-01-16 13:11  Afternoon after lunch. ",31,1500,"3",463,92.2342378811317,"3",TRUE,TRUE,""
"503","2014-01-16 13:15:35","2014-01-16 13:11  Afternoon after lunch. ",32,1500,"7",530,66.8558169122006,"7",TRUE,TRUE,""
"2103","2014-01-16 16:28:59","2014-01-16 16:28  Drowsy in the late afternoon. ",1,1500,"5",621,11.3641949428212,"5",TRUE,TRUE,""
"3102","2014-01-16 16:29:04","2014-01-16 16:28  Drowsy in the late afternoon. ",2,1500,"6",565,32.7654006852781,"6",TRUE,TRUE,""
"470","2014-01-16 16:29:08","2014-01-16 16:28  Drowsy in the late afternoon. ",3,1500,"2",560,73.4845089563244,"2",TRUE,TRUE,""
"539","2014-01-16 16:29:13","2014-01-16 16:28  Drowsy in the late afternoon. ",4,1500,"3",530,71.7799881449782,"3",TRUE,TRUE,""
"638","2014-01-16 16:29:18","2014-01-16 16:28  Drowsy in the late afternoon. ",5,1500,"7",640,12.8793245529066,"7",TRUE,TRUE,""
"736","2014-01-16 16:29:22","2014-01-16 16:28  Drowsy in the late afternoon. ",6,1500,"6",560,35.9850511067097,"6",TRUE,TRUE,""
"825","2014-01-16 16:29:26","2014-01-16 16:28  Drowsy in the late afternoon. ",7,1500,"6",470,78.2192889878414,"6",TRUE,TRUE,""
"925","2014-01-16 16:29:31","2014-01-16 16:28  Drowsy in the late afternoon. ",8,1500,"3",490,85.0373722332259,"3",TRUE,TRUE,""
"1023","2014-01-16 16:29:36","2014-01-16 16:28  Drowsy in the late afternoon. ",9,1500,"2",616,40.3410487357053,"2",TRUE,TRUE,""
"1123","2014-01-16 16:29:41","2014-01-16 16:28  Drowsy in the late afternoon. ",10,1500,"5",583,16.8565397793809,"5",TRUE,TRUE,""
"1220","2014-01-16 16:29:45","2014-01-16 16:28  Drowsy in the late afternoon. ",11,1500,"8",515,NA,"7",FALSE,TRUE,""
"1320","2014-01-16 16:29:50","2014-01-16 16:28  Drowsy in the late afternoon. ",11,1500,"8",515,NA,"8",TRUE,FALSE,"correction trial"
"1419","2014-01-16 16:29:54","2014-01-16 16:28  Drowsy in the late afternoon. ",11,1500,"7",616,17.992886986945,"7",TRUE,TRUE,""
"1515","2014-01-16 16:29:59","2014-01-16 16:28  Drowsy in the late afternoon. ",12,1500,"3",517,75.1890297676705,"3",TRUE,TRUE,""
"1615","2014-01-16 16:30:03","2014-01-16 16:28  Drowsy in the late afternoon. ",13,1500,"2",463,NA,"3",FALSE,TRUE,""
"1714","2014-01-16 16:30:07","2014-01-16 16:28  Drowsy in the late afternoon. ",13,1500,"2",480,NA,"1",FALSE,FALSE,"illegal character"
"1814","2014-01-16 16:30:12","2014-01-16 16:28  Drowsy in the late afternoon. ",13,1500,"2",510,NA,"2",TRUE,FALSE,"correction trial"
"1914","2014-01-16 16:30:17","2014-01-16 16:28  Drowsy in the late afternoon. ",13,1500,"4",550,NA,"5",FALSE,TRUE,""
"2014","2014-01-16 16:30:22","2014-01-16 16:28  Drowsy in the late afternoon. ",13,1500,"4",464,NA,"4",TRUE,FALSE,"correction trial"
"2122","2014-01-16 16:30:27","2014-01-16 16:28  Drowsy in the late afternoon. ",13,1500,"4",530,54.166606427735,"4",TRUE,TRUE,""
"2221","2014-01-16 16:30:31","2014-01-16 16:28  Drowsy in the late afternoon. ",14,1500,"5",490,67.2345993147219,"5",TRUE,TRUE,""
"2318","2014-01-16 16:30:35","2014-01-16 16:28  Drowsy in the late afternoon. ",15,1500,"8",540,72.9163353525423,"8",TRUE,TRUE,""
